## w(eV)         sigma(Sm^-1)     kappa(W(mK)^-1)        L12/e(Am^-1)      L22/e^2(Wm^-1)
    0.01              360934              628.66        -7.19396e+06         2.02941e+08
    0.03              360931             628.652        -7.19392e+06          2.0294e+08
    0.05              360924             628.636        -7.19384e+06         2.02938e+08
    0.07              360915             628.612        -7.19371e+06         2.02934e+08
    0.09              360902             628.581        -7.19355e+06          2.0293e+08
    0.11              360886             628.541        -7.19334e+06         2.02924e+08
    0.13              360867             628.493         -7.1931e+06         2.02917e+08
    0.15              360844             628.437        -7.19281e+06          2.0291e+08
    0.17              360819             628.373        -7.19248e+06         2.02901e+08
    0.19              360790             628.301        -7.19211e+06          2.0289e+08
    0.21              360758             628.222        -7.19169e+06         2.02879e+08
    0.23              360723             628.134        -7.19124e+06         2.02867e+08
    0.25              360684             628.038        -7.19074e+06         2.02853e+08
    0.27              360643             627.935        -7.19021e+06         2.02839e+08
    0.29              360598             627.823        -7.18963e+06         2.02823e+08
    0.31              360550             627.704        -7.18901e+06         2.02806e+08
    0.33              360499             627.576        -7.18835e+06         2.02788e+08
    0.35              360444             627.441        -7.18765e+06         2.02769e+08
    0.37              360387             627.297        -7.18691e+06         2.02748e+08
    0.39              360326             627.146        -7.18612e+06         2.02727e+08
    0.41              360262             626.987         -7.1853e+06         2.02704e+08
    0.43              360195              626.82        -7.18443e+06         2.02681e+08
    0.45              360124             626.645        -7.18353e+06         2.02656e+08
    0.47              360051             626.462        -7.18258e+06          2.0263e+08
    0.49              359974             626.272        -7.18159e+06         2.02603e+08
    0.51              359894             626.073        -7.18055e+06         2.02575e+08
    0.53              359811             625.867        -7.17948e+06         2.02546e+08
    0.55              359725             625.652        -7.17837e+06         2.02515e+08
    0.57              359636              625.43        -7.17721e+06         2.02484e+08
    0.59              359543               625.2        -7.17602e+06         2.02451e+08
    0.61              359447             624.962        -7.17478e+06         2.02417e+08
    0.63              359348             624.717         -7.1735e+06         2.02382e+08
    0.65              359246             624.463        -7.17218e+06         2.02346e+08
    0.67              359141             624.202        -7.17081e+06         2.02309e+08
    0.69              359032             623.933        -7.16941e+06         2.02271e+08
    0.71              358921             623.656        -7.16797e+06         2.02231e+08
    0.73              358806             623.372        -7.16648e+06         2.02191e+08
    0.75              358688              623.08        -7.16495e+06         2.02149e+08
    0.77              358567              622.78        -7.16338e+06         2.02106e+08
    0.79              358443             622.472        -7.16177e+06         2.02062e+08
    0.81              358315             622.157        -7.16012e+06         2.02017e+08
    0.83              358185             621.834        -7.15843e+06         2.01971e+08
    0.85              358051             621.503        -7.15669e+06         2.01924e+08
    0.87              357914             621.164        -7.15491e+06         2.01875e+08
    0.89              357774             620.818         -7.1531e+06         2.01826e+08
    0.91              357631             620.465        -7.15124e+06         2.01775e+08
    0.93              357485             620.103        -7.14934e+06         2.01723e+08
    0.95              357335             619.734        -7.14739e+06         2.01671e+08
    0.97              357183             619.358        -7.14541e+06         2.01617e+08
    0.99              357027             618.974        -7.14339e+06         2.01561e+08
    1.01              356869             618.582        -7.14132e+06         2.01505e+08
    1.03              356707             618.183        -7.13921e+06         2.01448e+08
    1.05              356542             617.776        -7.13706e+06         2.01389e+08
    1.07              356374             617.362        -7.13487e+06          2.0133e+08
    1.09              356202             616.941        -7.13264e+06         2.01269e+08
    1.11              356028             616.512        -7.13036e+06         2.01207e+08
    1.13              355851             616.075        -7.12805e+06         2.01144e+08
    1.15              355670             615.631        -7.12569e+06          2.0108e+08
    1.17              355487              615.18        -7.12329e+06         2.01015e+08
    1.19              355300             614.721        -7.12085e+06         2.00949e+08
    1.21              355110             614.255        -7.11837e+06         2.00881e+08
    1.23              354917             613.782        -7.11584e+06         2.00813e+08
    1.25              354721             613.301        -7.11328e+06         2.00743e+08
    1.27              354522             612.813        -7.11067e+06         2.00672e+08
    1.29              354320             612.317        -7.10802e+06           2.006e+08
    1.31              354115             611.815        -7.10533e+06         2.00527e+08
    1.33              353907             611.305         -7.1026e+06         2.00453e+08
    1.35              353696             610.788        -7.09982e+06         2.00378e+08
    1.37              353481             610.264        -7.09701e+06         2.00302e+08
    1.39              353264             609.733        -7.09415e+06         2.00224e+08
    1.41              353043             609.194        -7.09125e+06         2.00146e+08
    1.43              352820             608.648        -7.08831e+06         2.00066e+08
    1.45              352593             608.096        -7.08533e+06         1.99985e+08
    1.47              352364             607.536         -7.0823e+06         1.99903e+08
    1.49              352131             606.969        -7.07924e+06          1.9982e+08
    1.51              351896             606.395        -7.07613e+06         1.99736e+08
    1.53              351657             605.814        -7.07298e+06         1.99651e+08
    1.55              351416             605.226        -7.06979e+06         1.99565e+08
    1.57              351171             604.632        -7.06655e+06         1.99477e+08
    1.59              350923              604.03        -7.06328e+06         1.99389e+08
    1.61              350673             603.421        -7.05996e+06         1.99299e+08
    1.63              350419             602.806         -7.0566e+06         1.99208e+08
    1.65              350163             602.184         -7.0532e+06         1.99116e+08
    1.67              349903             601.554        -7.04975e+06         1.99023e+08
    1.69              349641             600.918        -7.04627e+06         1.98929e+08
    1.71              349375             600.276        -7.04274e+06         1.98834e+08
    1.73              349107             599.626        -7.03917e+06         1.98738e+08
    1.75              348835              598.97        -7.03556e+06          1.9864e+08
    1.77              348561             598.307        -7.03191e+06         1.98542e+08
    1.79              348283             597.638        -7.02821e+06         1.98442e+08
    1.81              348003             596.962        -7.02448e+06         1.98341e+08
    1.83              347720             596.279         -7.0207e+06          1.9824e+08
    1.85              347434              595.59        -7.01688e+06         1.98137e+08
    1.87              347145             594.894        -7.01301e+06         1.98033e+08
    1.89              346853             594.192        -7.00911e+06         1.97928e+08
    1.91              346558             593.483        -7.00516e+06         1.97821e+08
    1.93              346260             592.768        -7.00117e+06         1.97714e+08
    1.95              345959             592.046        -6.99714e+06         1.97606e+08
    1.97              345656             591.318        -6.99307e+06         1.97496e+08
    1.99              345349             590.584        -6.98895e+06         1.97385e+08
    2.01              345040             589.843        -6.98479e+06         1.97274e+08
    2.03              344727             589.096        -6.98059e+06         1.97161e+08
    2.05              344412             588.343        -6.97635e+06         1.97047e+08
    2.07              344094             587.583        -6.97207e+06         1.96932e+08
    2.09              343773             586.817        -6.96774e+06         1.96816e+08
    2.11              343450             586.045        -6.96337e+06         1.96699e+08
    2.13              343123             585.267        -6.95896e+06          1.9658e+08
    2.15              342794             584.483        -6.95451e+06         1.96461e+08
    2.17              342461             583.693        -6.95001e+06          1.9634e+08
    2.19              342126             582.897        -6.94547e+06         1.96219e+08
    2.21              341788             582.095        -6.94089e+06         1.96096e+08
    2.23              341448             581.286        -6.93627e+06         1.95972e+08
    2.25              341104             580.472        -6.93161e+06         1.95847e+08
    2.27              340758             579.652         -6.9269e+06         1.95721e+08
    2.29              340409             578.826        -6.92215e+06         1.95594e+08
    2.31              340057             577.994        -6.91736e+06         1.95466e+08
    2.33              339702             577.157        -6.91252e+06         1.95337e+08
    2.35              339345             576.313        -6.90765e+06         1.95207e+08
    2.37              338984             575.464        -6.90273e+06         1.95075e+08
    2.39              338621             574.609        -6.89777e+06         1.94943e+08
    2.41              338256             573.749        -6.89276e+06         1.94809e+08
    2.43              337887             572.882        -6.88772e+06         1.94674e+08
    2.45              337516             572.011        -6.88263e+06         1.94539e+08
    2.47              337142             571.133         -6.8775e+06         1.94402e+08
    2.49              336765              570.25        -6.87233e+06         1.94264e+08
    2.51              336386             569.362        -6.86711e+06         1.94125e+08
    2.53              336004             568.468        -6.86185e+06         1.93985e+08
    2.55              335619             567.569        -6.85655e+06         1.93844e+08
    2.57              335232             566.664        -6.85121e+06         1.93701e+08
    2.59              334841             565.754        -6.84582e+06         1.93558e+08
    2.61              334448             564.839        -6.84039e+06         1.93414e+08
    2.63              334053             563.918        -6.83492e+06         1.93268e+08
    2.65              333655             562.992        -6.82941e+06         1.93121e+08
    2.67              333254             562.061        -6.82386e+06         1.92974e+08
    2.69              332850             561.125        -6.81826e+06         1.92825e+08
    2.71              332444             560.184        -6.81262e+06         1.92675e+08
    2.73              332036             559.237        -6.80693e+06         1.92524e+08
    2.75              331624             558.286        -6.80121e+06         1.92372e+08
    2.77              331210             557.329        -6.79544e+06         1.92219e+08
    2.79              330794             556.367        -6.78963e+06         1.92065e+08
    2.81              330374             555.401        -6.78378e+06          1.9191e+08
    2.83              329953             554.429        -6.77788e+06         1.91754e+08
    2.85              329528             553.453        -6.77194e+06         1.91596e+08
    2.87              329101             552.472        -6.76596e+06         1.91438e+08
    2.89              328672             551.486        -6.75994e+06         1.91278e+08
    2.91              328240             550.495        -6.75387e+06         1.91118e+08
    2.93              327805               549.5        -6.74776e+06         1.90956e+08
    2.95              327368               548.5        -6.74161e+06         1.90793e+08
    2.97              326928             547.495        -6.73542e+06         1.90629e+08
    2.99              326486             546.485        -6.72918e+06         1.90465e+08
    3.01              326041             545.471         -6.7229e+06         1.90299e+08
    3.03              325594             544.453        -6.71658e+06         1.90132e+08
    3.05              325144              543.43        -6.71022e+06         1.89964e+08
    3.07              324692             542.402        -6.70381e+06         1.89794e+08
    3.09              324237              541.37        -6.69736e+06         1.89624e+08
    3.11              323780             540.334        -6.69087e+06         1.89453e+08
    3.13              323321             539.293        -6.68433e+06         1.89281e+08
    3.15              322859             538.248        -6.67776e+06         1.89107e+08
    3.17              322394             537.199        -6.67114e+06         1.88933e+08
    3.19              321927             536.146        -6.66448e+06         1.88757e+08
    3.21              321458             535.088        -6.65777e+06         1.88581e+08
    3.23              320986             534.026        -6.65102e+06         1.88403e+08
    3.25              320512              532.96        -6.64423e+06         1.88224e+08
    3.27              320035              531.89         -6.6374e+06         1.88045e+08
    3.29              319556             530.816        -6.63053e+06         1.87864e+08
    3.31              319074             529.738        -6.62361e+06         1.87682e+08
    3.33              318591             528.656        -6.61665e+06         1.87499e+08
    3.35              318104              527.57        -6.60965e+06         1.87315e+08
    3.37              317616             526.481         -6.6026e+06          1.8713e+08
    3.39              317125             525.387        -6.59552e+06         1.86944e+08
    3.41              316632              524.29        -6.58839e+06         1.86757e+08
    3.43              316136             523.188        -6.58122e+06         1.86568e+08
    3.45              315639             522.083          -6.574e+06         1.86379e+08
    3.47              315138             520.975        -6.56674e+06         1.86189e+08
    3.49              314636             519.863        -6.55944e+06         1.85997e+08
    3.51              314131             518.747         -6.5521e+06         1.85805e+08
    3.53              313624             517.627        -6.54472e+06         1.85612e+08
    3.55              313115             516.504        -6.53729e+06         1.85417e+08
    3.57              312603             515.378        -6.52982e+06         1.85221e+08
    3.59              312090             514.248        -6.52231e+06         1.85025e+08
    3.61              311574             513.115        -6.51476e+06         1.84827e+08
    3.63              311055             511.978        -6.50716e+06         1.84628e+08
    3.65              310535             510.838        -6.49953e+06         1.84429e+08
    3.67              310012             509.695        -6.49185e+06         1.84228e+08
    3.69              309487             508.549        -6.48412e+06         1.84026e+08
    3.71              308960             507.399        -6.47636e+06         1.83823e+08
    3.73              308431             506.246        -6.46855e+06         1.83619e+08
    3.75              307900              505.09         -6.4607e+06         1.83414e+08
    3.77              307366             503.931        -6.45281e+06         1.83208e+08
    3.79              306830             502.769        -6.44488e+06         1.83001e+08
    3.81              306292             501.603         -6.4369e+06         1.82793e+08
    3.83              305752             500.435        -6.42889e+06         1.82584e+08
    3.85              305210             499.264        -6.42083e+06         1.82374e+08
    3.87              304666              498.09        -6.41273e+06         1.82163e+08
    3.89              304120             496.913        -6.40458e+06         1.81951e+08
    3.91              303571             495.734         -6.3964e+06         1.81737e+08
    3.93              303021             494.551        -6.38817e+06         1.81523e+08
    3.95              302468             493.366         -6.3799e+06         1.81308e+08
    3.97              301913             492.178        -6.37159e+06         1.81092e+08
    3.99              301357             490.988        -6.36324e+06         1.80874e+08
    4.01              300798             489.794        -6.35484e+06         1.80656e+08
    4.03              300237             488.599        -6.34641e+06         1.80436e+08
    4.05              299674               487.4        -6.33793e+06         1.80216e+08
    4.07              299110             486.199        -6.32941e+06         1.79995e+08
    4.09              298543             484.996        -6.32085e+06         1.79772e+08
    4.11              297974              483.79        -6.31225e+06         1.79549e+08
    4.13              297403             482.582         -6.3036e+06         1.79324e+08
    4.15              296831             481.372        -6.29492e+06         1.79099e+08
    4.17              296256             480.159        -6.28619e+06         1.78872e+08
    4.19              295680             478.944        -6.27743e+06         1.78644e+08
    4.21              295101             477.727        -6.26862e+06         1.78416e+08
    4.23              294521             476.507        -6.25977e+06         1.78186e+08
    4.25              293938             475.286        -6.25087e+06         1.77956e+08
    4.27              293354             474.062        -6.24194e+06         1.77724e+08
    4.29              292768             472.836        -6.23297e+06         1.77491e+08
    4.31              292180             471.608        -6.22395e+06         1.77258e+08
    4.33              291590             470.378         -6.2149e+06         1.77023e+08
    4.35              290999             469.146         -6.2058e+06         1.76788e+08
    4.37              290405             467.913        -6.19666e+06         1.76551e+08
    4.39              289810             466.677        -6.18749e+06         1.76313e+08
    4.41              289213             465.439        -6.17827e+06         1.76075e+08
    4.43              288614               464.2        -6.16901e+06         1.75835e+08
    4.45              288013             462.959        -6.15971e+06         1.75594e+08
    4.47              287410             461.716        -6.15037e+06         1.75353e+08
    4.49              286806             460.471        -6.14098e+06          1.7511e+08
    4.51              286200             459.225        -6.13156e+06         1.74867e+08
    4.53              285592             457.977         -6.1221e+06         1.74622e+08
    4.55              284982             456.728         -6.1126e+06         1.74376e+08
    4.57              284371             455.477        -6.10306e+06          1.7413e+08
    4.59              283758             454.224        -6.09347e+06         1.73882e+08
    4.61              283143              452.97        -6.08385e+06         1.73634e+08
    4.63              282527             451.715        -6.07419e+06         1.73384e+08
    4.65              281909             450.458        -6.06449e+06         1.73134e+08
    4.67              281289             449.199        -6.05475e+06         1.72882e+08
    4.69              280668              447.94        -6.04496e+06          1.7263e+08
    4.71              280045             446.679        -6.03514e+06         1.72376e+08
    4.73              279420             445.417        -6.02528e+06         1.72122e+08
    4.75              278794             444.153        -6.01538e+06         1.71866e+08
    4.77              278166             442.889        -6.00544e+06          1.7161e+08
    4.79              277536             441.623        -5.99546e+06         1.71353e+08
    4.81              276905             440.356        -5.98544e+06         1.71094e+08
    4.83              276273             439.088        -5.97539e+06         1.70835e+08
    4.85              275639             437.819        -5.96529e+06         1.70575e+08
    4.87              275003             436.549        -5.95516e+06         1.70314e+08
    4.89              274366             435.278        -5.94498e+06         1.70051e+08
    4.91              273727             434.006        -5.93477e+06         1.69788e+08
    4.93              273087             432.733        -5.92452e+06         1.69524e+08
    4.95              272445             431.459        -5.91423e+06         1.69259e+08
    4.97              271801             430.185         -5.9039e+06         1.68993e+08
    4.99              271157             428.909        -5.89354e+06         1.68726e+08
    5.01              270511             427.633        -5.88313e+06         1.68459e+08
    5.03              269863             426.356        -5.87269e+06          1.6819e+08
    5.05              269214             425.079        -5.86221e+06          1.6792e+08
    5.07              268563             423.801        -5.85169e+06         1.67649e+08
    5.09              267911             422.522        -5.84113e+06         1.67378e+08
    5.11              267258             421.242        -5.83054e+06         1.67105e+08
    5.13              266604             419.962        -5.81991e+06         1.66832e+08
    5.15              265947             418.682        -5.80924e+06         1.66557e+08
    5.17              265290               417.4        -5.79854e+06         1.66282e+08
    5.19              264631             416.119        -5.78779e+06         1.66006e+08
    5.21              263971             414.837        -5.77701e+06         1.65729e+08
    5.23              263310             413.555         -5.7662e+06          1.6545e+08
    5.25              262647             412.272        -5.75534e+06         1.65171e+08
    5.27              261983             410.989        -5.74445e+06         1.64891e+08
    5.29              261318             409.705        -5.73353e+06         1.64611e+08
    5.31              260652             408.422        -5.72257e+06         1.64329e+08
    5.33              259984             407.138        -5.71157e+06         1.64046e+08
    5.35              259315             405.854        -5.70053e+06         1.63763e+08
    5.37              258645              404.57        -5.68946e+06         1.63478e+08
    5.39              257973             403.285        -5.67836e+06         1.63193e+08
    5.41              257301             402.001        -5.66721e+06         1.62907e+08
    5.43              256627             400.716        -5.65604e+06          1.6262e+08
    5.45              255952             399.432        -5.64482e+06         1.62332e+08
    5.47              255276             398.147        -5.63358e+06         1.62043e+08
    5.49              254598             396.863        -5.62229e+06         1.61753e+08
    5.51              253920             395.578        -5.61098e+06         1.61462e+08
    5.53              253240             394.294        -5.59962e+06         1.61171e+08
    5.55              252560             393.009        -5.58824e+06         1.60878e+08
    5.57              251878             391.725        -5.57682e+06         1.60585e+08
    5.59              251195             390.441        -5.56536e+06         1.60291e+08
    5.61              250511             389.157        -5.55387e+06         1.59996e+08
    5.63              249827             387.874        -5.54235e+06           1.597e+08
    5.65              249141             386.591        -5.53079e+06         1.59403e+08
    5.67              248454             385.308         -5.5192e+06         1.59106e+08
    5.69              247766             384.025        -5.50758e+06         1.58807e+08
    5.71              247077             382.743        -5.49592e+06         1.58508e+08
    5.73              246387             381.461        -5.48423e+06         1.58208e+08
    5.75              245696             380.179         -5.4725e+06         1.57907e+08
    5.77              245004             378.898        -5.46075e+06         1.57605e+08
    5.79              244312             377.618        -5.44896e+06         1.57303e+08
    5.81              243618             376.338        -5.43714e+06         1.56999e+08
    5.83              242923             375.058        -5.42529e+06         1.56695e+08
    5.85              242228             373.779         -5.4134e+06          1.5639e+08
    5.87              241531             372.501        -5.40149e+06         1.56084e+08
    5.89              240834             371.223        -5.38954e+06         1.55777e+08
    5.91              240136             369.946        -5.37756e+06          1.5547e+08
    5.93              239437              368.67        -5.36555e+06         1.55162e+08
    5.95              238738             367.394        -5.35351e+06         1.54853e+08
    5.97              238037             366.119        -5.34144e+06         1.54543e+08
    5.99              237336             364.845        -5.32934e+06         1.54232e+08
    6.01              236634             363.571         -5.3172e+06         1.53921e+08
    6.03              235931             362.299        -5.30504e+06         1.53608e+08
    6.05              235227             361.027        -5.29285e+06         1.53295e+08
    6.07              234523             359.756        -5.28063e+06         1.52982e+08
    6.09              233818             358.486        -5.26838e+06         1.52667e+08
    6.11              233112             357.217        -5.25609e+06         1.52352e+08
    6.13              232406             355.949        -5.24378e+06         1.52036e+08
    6.15              231699             354.682        -5.23145e+06         1.51719e+08
    6.17              230991             353.416        -5.21908e+06         1.51401e+08
    6.19              230283              352.15        -5.20668e+06         1.51083e+08
    6.21              229574             350.886        -5.19426e+06         1.50764e+08
    6.23              228864             349.623        -5.18181e+06         1.50444e+08
    6.25              228154             348.361        -5.16933e+06         1.50124e+08
    6.27              227443             347.101        -5.15682e+06         1.49803e+08
    6.29              226732             345.841        -5.14429e+06         1.49481e+08
    6.31              226020             344.583        -5.13173e+06         1.49158e+08
    6.33              225307             343.326        -5.11914e+06         1.48835e+08
    6.35              224594              342.07        -5.10653e+06         1.48511e+08
    6.37              223881             340.815        -5.09389e+06         1.48186e+08
    6.39              223167             339.561        -5.08122e+06          1.4786e+08
    6.41              222452             338.309        -5.06853e+06         1.47534e+08
    6.43              221738             337.058        -5.05581e+06         1.47207e+08
    6.45              221022             335.809        -5.04307e+06          1.4688e+08
    6.47              220306             334.561         -5.0303e+06         1.46552e+08
    6.49              219590             333.314        -5.01751e+06         1.46223e+08
    6.51              218874             332.069        -5.00469e+06         1.45893e+08
    6.53              218157             330.825        -4.99185e+06         1.45563e+08
    6.55              217439             329.583        -4.97899e+06         1.45232e+08
    6.57              216722             328.342         -4.9661e+06         1.44901e+08
    6.59              216004             327.103        -4.95319e+06         1.44569e+08
    6.61              215285             325.865        -4.94025e+06         1.44236e+08
    6.63              214567             324.629         -4.9273e+06         1.43903e+08
    6.65              213848             323.394        -4.91432e+06         1.43569e+08
    6.67              213129             322.161        -4.90131e+06         1.43234e+08
    6.69              212409              320.93        -4.88829e+06         1.42899e+08
    6.71              211690               319.7        -4.87524e+06         1.42564e+08
    6.73              210970             318.472        -4.86217e+06         1.42227e+08
    6.75              210250             317.246        -4.84909e+06          1.4189e+08
    6.77              209529             316.021        -4.83598e+06         1.41553e+08
    6.79              208809             314.798        -4.82285e+06         1.41215e+08
    6.81              208088             313.577        -4.80969e+06         1.40876e+08
    6.83              207367             312.358        -4.79652e+06         1.40537e+08
    6.85              206647              311.14        -4.78333e+06         1.40197e+08
    6.87              205926             309.925        -4.77012e+06         1.39857e+08
    6.89              205204             308.711         -4.7569e+06         1.39516e+08
    6.91              204483             307.499        -4.74365e+06         1.39174e+08
    6.93              203762             306.289        -4.73038e+06         1.38832e+08
    6.95              203041             305.081         -4.7171e+06          1.3849e+08
    6.97              202319             303.874        -4.70379e+06         1.38147e+08
    6.99              201598              302.67        -4.69047e+06         1.37803e+08
    7.01              200877             301.468        -4.67714e+06         1.37459e+08
    7.03              200155             300.267        -4.66378e+06         1.37115e+08
    7.05              199434             299.069        -4.65041e+06          1.3677e+08
    7.07              198713             297.873        -4.63703e+06         1.36425e+08
    7.09              197992             296.679        -4.62362e+06         1.36079e+08
    7.11              197271             295.486         -4.6102e+06         1.35732e+08
    7.13              196550             294.296        -4.59677e+06         1.35385e+08
    7.15              195829             293.108        -4.58332e+06         1.35038e+08
    7.17              195108             291.922        -4.56986e+06          1.3469e+08
    7.19              194388             290.739        -4.55638e+06         1.34342e+08
    7.21              193667             289.557        -4.54288e+06         1.33994e+08
    7.23              192947             288.377        -4.52938e+06         1.33645e+08
    7.25              192227               287.2        -4.51586e+06         1.33295e+08
    7.27              191507             286.025        -4.50233e+06         1.32945e+08
    7.29              190788             284.852        -4.48878e+06         1.32595e+08
    7.31              190068             283.682        -4.47522e+06         1.32245e+08
    7.33              189349             282.514        -4.46165e+06         1.31894e+08
    7.35              188630             281.348        -4.44807e+06         1.31542e+08
    7.37              187912             280.184        -4.43448e+06          1.3119e+08
    7.39              187194             279.023        -4.42087e+06         1.30838e+08
    7.41              186476             277.864        -4.40726e+06         1.30486e+08
    7.43              185758             276.707        -4.39363e+06         1.30133e+08
    7.45              185041             275.553           -4.38e+06          1.2978e+08
    7.47              184325             274.401        -4.36635e+06         1.29427e+08
    7.49              183608             273.251         -4.3527e+06         1.29073e+08
    7.51              182892             272.104        -4.33903e+06         1.28719e+08
    7.53              182177             270.959        -4.32536e+06         1.28364e+08
    7.55              181462             269.817        -4.31168e+06          1.2801e+08
    7.57              180747             268.677        -4.29799e+06         1.27655e+08
    7.59              180033              267.54         -4.2843e+06         1.27299e+08
    7.61              179319             266.405        -4.27059e+06         1.26944e+08
    7.63              178606             265.273        -4.25688e+06         1.26588e+08
    7.65              177894             264.143        -4.24317e+06         1.26232e+08
    7.67              177182             263.016        -4.22945e+06         1.25876e+08
    7.69              176470             261.891        -4.21572e+06         1.25519e+08
    7.71              175759             260.769        -4.20198e+06         1.25163e+08
    7.73              175049              259.65        -4.18825e+06         1.24806e+08
    7.75              174339             258.533         -4.1745e+06         1.24449e+08
    7.77              173630             257.419        -4.16076e+06         1.24091e+08
    7.79              172922             256.307          -4.147e+06         1.23734e+08
    7.81              172214             255.198        -4.13325e+06         1.23376e+08
    7.83              171507             254.092        -4.11949e+06         1.23018e+08
    7.85              170801             252.988        -4.10573e+06          1.2266e+08
    7.87              170095             251.887        -4.09197e+06         1.22302e+08
    7.89              169390             250.789         -4.0782e+06         1.21944e+08
    7.91              168686             249.693        -4.06443e+06         1.21585e+08
    7.93              167983               248.6        -4.05067e+06         1.21227e+08
    7.95              167280              247.51         -4.0369e+06         1.20868e+08
    7.97              166578             246.423        -4.02313e+06         1.20509e+08
    7.99              165877             245.338        -4.00936e+06          1.2015e+08
    8.01              165177             244.256        -3.99559e+06         1.19791e+08
    8.03              164478             243.177        -3.98182e+06         1.19432e+08
    8.05              163779             242.101        -3.96805e+06         1.19073e+08
    8.07              163082             241.028        -3.95428e+06         1.18714e+08
    8.09              162385             239.957        -3.94052e+06         1.18354e+08
    8.11              161689             238.889        -3.92675e+06         1.17995e+08
    8.13              160994             237.824        -3.91299e+06         1.17636e+08
    8.15              160300             236.762        -3.89924e+06         1.17276e+08
    8.17              159607             235.703        -3.88548e+06         1.16917e+08
    8.19              158915             234.647        -3.87173e+06         1.16558e+08
    8.21              158224             233.594        -3.85798e+06         1.16198e+08
    8.23              157534             232.543        -3.84424e+06         1.15839e+08
    8.25              156845             231.496        -3.83051e+06         1.15479e+08
    8.27              156157             230.451        -3.81677e+06          1.1512e+08
    8.29              155471              229.41        -3.80305e+06         1.14761e+08
    8.31              154785             228.371        -3.78933e+06         1.14402e+08
    8.33              154100             227.335        -3.77561e+06         1.14042e+08
    8.35              153416             226.302         -3.7619e+06         1.13683e+08
    8.37              152734             225.273         -3.7482e+06         1.13324e+08
    8.39              152053             224.246        -3.73451e+06         1.12965e+08
    8.41              151372             223.222        -3.72083e+06         1.12607e+08
    8.43              150693             222.201        -3.70715e+06         1.12248e+08
    8.45              150015             221.184        -3.69348e+06         1.11889e+08
    8.47              149339             220.169        -3.67982e+06         1.11531e+08
    8.49              148663             219.157        -3.66617e+06         1.11173e+08
    8.51              147989             218.149        -3.65254e+06         1.10814e+08
    8.53              147316             217.143        -3.63891e+06         1.10456e+08
    8.55              146644             216.141        -3.62529e+06         1.10099e+08
    8.57              145974             215.142        -3.61168e+06         1.09741e+08
    8.59              145305             214.146        -3.59808e+06         1.09384e+08
    8.61              144637             213.153         -3.5845e+06         1.09026e+08
    8.63              143970             212.163        -3.57093e+06         1.08669e+08
    8.65              143305             211.176        -3.55737e+06         1.08312e+08
    8.67              142641             210.192        -3.54382e+06         1.07956e+08
    8.69              141979             209.211        -3.53029e+06         1.07599e+08
    8.71              141318             208.234        -3.51677e+06         1.07243e+08
    8.73              140658              207.26        -3.50327e+06         1.06887e+08
    8.75              140000             206.289        -3.48978e+06         1.06532e+08
    8.77              139343             205.321         -3.4763e+06         1.06177e+08
    8.79              138688             204.356        -3.46284e+06         1.05822e+08
    8.81              138034             203.394         -3.4494e+06         1.05467e+08
    8.83              137381             202.436        -3.43597e+06         1.05112e+08
    8.85              136730             201.481        -3.42256e+06         1.04758e+08
    8.87              136081             200.529        -3.40916e+06         1.04405e+08
    8.89              135433             199.581        -3.39578e+06         1.04051e+08
    8.91              134786             198.635        -3.38242e+06         1.03698e+08
    8.93              134142             197.693        -3.36908e+06         1.03345e+08
    8.95              133498             196.754        -3.35576e+06         1.02993e+08
    8.97              132856             195.818        -3.34245e+06         1.02641e+08
    8.99              132216             194.886        -3.32917e+06          1.0229e+08
    9.01              131578             193.957         -3.3159e+06         1.01938e+08
    9.03              130941             193.031        -3.30266e+06         1.01588e+08
    9.05              130305             192.108        -3.28943e+06         1.01237e+08
    9.07              129672             191.189        -3.27623e+06         1.00887e+08
    9.09              129040             190.273        -3.26304e+06         1.00538e+08
    9.11              128409              189.36        -3.24988e+06         1.00189e+08
    9.13              127781             188.451        -3.23674e+06         9.98403e+07
    9.15              127154             187.545        -3.22362e+06         9.94922e+07
    9.17              126529             186.642        -3.21052e+06         9.91446e+07
    9.19              125905             185.743        -3.19745e+06         9.87974e+07
    9.21              125283             184.847         -3.1844e+06         9.84508e+07
    9.23              124663             183.954        -3.17137e+06         9.81047e+07
    9.25              124045             183.065        -3.15837e+06          9.7759e+07
    9.27              123428             182.179        -3.14539e+06         9.74139e+07
    9.29              122814             181.296        -3.13244e+06         9.70694e+07
    9.31              122201             180.417        -3.11951e+06         9.67254e+07
    9.33              121590             179.541        -3.10661e+06         9.63819e+07
    9.35              120981             178.668        -3.09373e+06          9.6039e+07
    9.37              120373             177.799        -3.08088e+06         9.56967e+07
    9.39              119768             176.934        -3.06806e+06          9.5355e+07
    9.41              119164             176.071        -3.05526e+06         9.50138e+07
    9.43              118562             175.212        -3.04249e+06         9.46733e+07
    9.45              117962             174.357        -3.02975e+06         9.43334e+07
    9.47              117364             173.505        -3.01703e+06         9.39941e+07
    9.49              116768             172.656        -3.00435e+06         9.36554e+07
    9.51              116174             171.811        -2.99169e+06         9.33174e+07
    9.53              115582             170.969        -2.97906e+06           9.298e+07
    9.55              114992             170.131        -2.96646e+06         9.26433e+07
    9.57              114403             169.296        -2.95389e+06         9.23072e+07
    9.59              113817             168.464        -2.94135e+06         9.19719e+07
    9.61              113233             167.636        -2.92884e+06         9.16372e+07
    9.63              112650             166.811        -2.91637e+06         9.13032e+07
    9.65              112070              165.99        -2.90392e+06         9.09699e+07
    9.67              111492             165.173         -2.8915e+06         9.06373e+07
    9.69              110916             164.358        -2.87912e+06         9.03055e+07
    9.71              110341             163.548        -2.86677e+06         8.99744e+07
    9.73              109769              162.74        -2.85445e+06          8.9644e+07
    9.75              109199             161.937        -2.84216e+06         8.93144e+07
    9.77              108631             161.136         -2.8299e+06         8.89855e+07
    9.79              108065             160.339        -2.81768e+06         8.86575e+07
    9.81              107501             159.546         -2.8055e+06         8.83301e+07
    9.83              106940             158.756        -2.79334e+06         8.80036e+07
    9.85              106380              157.97        -2.78122e+06         8.76779e+07
    9.87              105822             157.187        -2.76914e+06         8.73529e+07
    9.89              105267             156.408        -2.75709e+06         8.70288e+07
    9.91              104714             155.632        -2.74507e+06         8.67055e+07
    9.93              104163              154.86        -2.73309e+06         8.63831e+07
    9.95              103614             154.091        -2.72115e+06         8.60614e+07
    9.97              103067             153.326        -2.70924e+06         8.57406e+07
    9.99              102523             152.564        -2.69737e+06         8.54207e+07
   10.01              101980             151.806        -2.68554e+06         8.51016e+07
   10.03              101440             151.051        -2.67374e+06         8.47834e+07
   10.05              100902               150.3        -2.66198e+06         8.44661e+07
   10.07              100367             149.553        -2.65026e+06         8.41497e+07
   10.09             99833.2             148.809        -2.63857e+06         8.38341e+07
   10.11             99301.9             148.068        -2.62693e+06         8.35195e+07
   10.13               98773             147.331        -2.61532e+06         8.32057e+07
   10.15             98246.2             146.598        -2.60375e+06         8.28929e+07
   10.17             97721.8             145.868        -2.59222e+06          8.2581e+07
   10.19             97199.6             145.142        -2.58073e+06         8.22701e+07
   10.21             96679.7             144.419        -2.56928e+06         8.19601e+07
   10.23             96162.1               143.7        -2.55786e+06          8.1651e+07
   10.25             95646.8             142.984        -2.54649e+06         8.13429e+07
   10.27             95133.7             142.272        -2.53516e+06         8.10358e+07
   10.29               94623             141.564        -2.52387e+06         8.07296e+07
   10.31             94114.6             140.859        -2.51262e+06         8.04244e+07
   10.33             93608.6             140.158        -2.50141e+06         8.01202e+07
   10.35             93104.8              139.46        -2.49024e+06          7.9817e+07
   10.37             92603.5             138.766        -2.47911e+06         7.95148e+07
   10.39             92104.4             138.076        -2.46803e+06         7.92136e+07
   10.41             91607.7             137.389        -2.45699e+06         7.89134e+07
   10.43             91113.4             136.706        -2.44599e+06         7.86142e+07
   10.45             90621.4             136.026        -2.43503e+06         7.83161e+07
   10.47             90131.8              135.35        -2.42411e+06          7.8019e+07
   10.49             89644.6             134.677        -2.41324e+06         7.77229e+07
   10.51             89159.8             134.008        -2.40241e+06         7.74279e+07
   10.53             88677.3             133.343        -2.39162e+06          7.7134e+07
   10.55             88197.3             132.681        -2.38088e+06         7.68411e+07
   10.57             87719.6             132.023        -2.37018e+06         7.65492e+07
   10.59             87244.4             131.369        -2.35953e+06         7.62585e+07
   10.61             86771.6             130.718        -2.34892e+06         7.59688e+07
   10.63             86301.1             130.071        -2.33835e+06         7.56802e+07
   10.65             85833.2             129.427        -2.32783e+06         7.53927e+07
   10.67             85367.6             128.787        -2.31735e+06         7.51063e+07
   10.69             84904.5             128.151        -2.30692e+06          7.4821e+07
   10.71             84443.8             127.519        -2.29654e+06         7.45368e+07
   10.73             83985.5             126.889         -2.2862e+06         7.42538e+07
   10.75             83529.7             126.264         -2.2759e+06         7.39718e+07
   10.77             83076.4             125.642        -2.26565e+06          7.3691e+07
   10.79             82625.5             125.024        -2.25545e+06         7.34113e+07
   10.81             82177.1              124.41        -2.24529e+06         7.31328e+07
   10.83             81731.1             123.799        -2.23518e+06         7.28554e+07
   10.85             81287.6             123.192        -2.22512e+06         7.25791e+07
   10.87             80846.6             122.588         -2.2151e+06          7.2304e+07
   10.89               80408             121.988        -2.20513e+06         7.20301e+07
   10.91             79971.9             121.392         -2.1952e+06         7.17573e+07
   10.93             79538.3             120.799        -2.18533e+06         7.14857e+07
   10.95             79107.2              120.21         -2.1755e+06         7.12153e+07
   10.97             78678.6             119.625        -2.16571e+06         7.09461e+07
   10.99             78252.4             119.044        -2.15598e+06          7.0678e+07
   11.01             77828.8             118.466        -2.14629e+06         7.04111e+07
   11.03             77407.6             117.891        -2.13665e+06         7.01454e+07
   11.05               76989             117.321        -2.12706e+06         6.98809e+07
   11.07             76572.8             116.754        -2.11752e+06         6.96177e+07
   11.09             76159.1             116.191        -2.10803e+06         6.93556e+07
   11.11               75748             115.631        -2.09858e+06         6.90947e+07
   11.13             75339.3             115.075        -2.08918e+06         6.88351e+07
   11.15             74933.2             114.523        -2.07983e+06         6.85766e+07
   11.17             74529.5             113.974        -2.07053e+06         6.83194e+07
   11.19             74128.4              113.43        -2.06128e+06         6.80634e+07
   11.21             73729.8             112.888        -2.05208e+06         6.78087e+07
   11.23             73333.7             112.351        -2.04293e+06         6.75551e+07
   11.25             72940.1             111.817        -2.03382e+06         6.73029e+07
   11.27               72549             111.287        -2.02477e+06         6.70518e+07
   11.29             72160.4             110.761        -2.01576e+06          6.6802e+07
   11.31             71774.3             110.238        -2.00681e+06         6.65534e+07
   11.33             71390.8             109.719         -1.9979e+06         6.63061e+07
   11.35             71009.8             109.203        -1.98905e+06         6.60601e+07
   11.37             70631.3             108.692        -1.98024e+06         6.58153e+07
   11.39             70255.3             108.184        -1.97148e+06         6.55718e+07
   11.41             69881.8              107.68        -1.96278e+06         6.53295e+07
   11.43             69510.8             107.179        -1.95412e+06         6.50885e+07
   11.45             69142.4             106.682        -1.94551e+06         6.48487e+07
   11.47             68776.5             106.189        -1.93696e+06         6.46103e+07
   11.49               68413               105.7        -1.92845e+06         6.43731e+07
   11.51             68052.1             105.214        -1.91999e+06         6.41372e+07
   11.53             67693.7             104.732        -1.91159e+06         6.39025e+07
   11.55             67337.9             104.254        -1.90323e+06         6.36691e+07
   11.57             66984.5             103.779        -1.89493e+06         6.34371e+07
   11.59             66633.6             103.309        -1.88667e+06         6.32063e+07
   11.61             66285.3             102.842        -1.87847e+06         6.29767e+07
   11.63             65939.4             102.378        -1.87032e+06         6.27485e+07
   11.65             65596.1             101.918        -1.86221e+06         6.25216e+07
   11.67             65255.2             101.463        -1.85416e+06         6.22959e+07
   11.69             64916.9              101.01        -1.84616e+06         6.20716e+07
   11.71               64581             100.562        -1.83821e+06         6.18485e+07
   11.73             64247.7             100.117        -1.83031e+06         6.16268e+07
   11.75             63916.8             99.6761        -1.82246e+06         6.14063e+07
   11.77             63588.5             99.2388        -1.81466e+06         6.11871e+07
   11.79             63262.6             98.8052        -1.80691e+06         6.09692e+07
   11.81             62939.2             98.3754        -1.79921e+06         6.07527e+07
   11.83             62618.3             97.9493        -1.79157e+06         6.05374e+07
   11.85             62299.9             97.5269        -1.78397e+06         6.03234e+07
   11.87             61983.9             97.1083        -1.77643e+06         6.01108e+07
   11.89             61670.4             96.6933        -1.76893e+06         5.98994e+07
   11.91             61359.4             96.2822        -1.76149e+06         5.96894e+07
   11.93             61050.9             95.8747         -1.7541e+06         5.94806e+07
   11.95             60744.8              95.471        -1.74675e+06         5.92731e+07
   11.97             60441.2             95.0711        -1.73946e+06          5.9067e+07
   11.99               60140             94.6748        -1.73222e+06         5.88622e+07
   12.01             59841.3             94.2823        -1.72503e+06         5.86586e+07
   12.03             59545.1             93.8936        -1.71789e+06         5.84564e+07
   12.05             59251.3             93.5086         -1.7108e+06         5.82555e+07
   12.07             58959.9             93.1273        -1.70376e+06         5.80559e+07
   12.09               58671             92.7497        -1.69678e+06         5.78576e+07
   12.11             58384.4             92.3759        -1.68984e+06         5.76606e+07
   12.13             58100.4             92.0058        -1.68295e+06         5.74649e+07
   12.15             57818.7             91.6395        -1.67612e+06         5.72705e+07
   12.17             57539.5             91.2769        -1.66933e+06         5.70774e+07
   12.19             57262.6              90.918        -1.66259e+06         5.68856e+07
   12.21             56988.2             90.5628        -1.65591e+06         5.66951e+07
   12.23             56716.2             90.2114        -1.64927e+06         5.65059e+07
   12.25             56446.5             89.8637        -1.64269e+06          5.6318e+07
   12.27             56179.3             89.5198        -1.63615e+06         5.61314e+07
   12.29             55914.5             89.1796        -1.62967e+06         5.59461e+07
   12.31               55652             88.8431        -1.62323e+06         5.57621e+07
   12.33             55391.9             88.5103        -1.61685e+06         5.55794e+07
   12.35             55134.2             88.1812        -1.61051e+06          5.5398e+07
   12.37             54878.8             87.8559        -1.60423e+06         5.52179e+07
   12.39             54625.8             87.5343        -1.59799e+06         5.50391e+07
   12.41             54375.1             87.2164        -1.59181e+06         5.48616e+07
   12.43             54126.8             86.9022        -1.58567e+06         5.46854e+07
   12.45             53880.8             86.5917        -1.57958e+06         5.45104e+07
   12.47             53637.2             86.2849        -1.57354e+06         5.43368e+07
   12.49             53395.8             85.9819        -1.56755e+06         5.41644e+07
   12.51             53156.8             85.6825        -1.56162e+06         5.39933e+07
   12.53             52920.1             85.3869        -1.55572e+06         5.38235e+07
   12.55             52685.7             85.0949        -1.54988e+06         5.36549e+07
   12.57             52453.6             84.8066        -1.54409e+06         5.34877e+07
   12.59             52223.8              84.522        -1.53835e+06         5.33217e+07
   12.61             51996.3             84.2411        -1.53265e+06          5.3157e+07
   12.63             51771.1             83.9639          -1.527e+06         5.29935e+07
   12.65             51548.1             83.6903         -1.5214e+06         5.28313e+07
   12.67             51327.4             83.4205        -1.51585e+06         5.26704e+07
   12.69             51108.9             83.1542        -1.51035e+06         5.25107e+07
   12.71             50892.7             82.8917         -1.5049e+06         5.23523e+07
   12.73             50678.7             82.6328        -1.49949e+06         5.21952e+07
   12.75               50467             82.3775        -1.49413e+06         5.20393e+07
   12.77             50257.4             82.1259        -1.48882e+06         5.18847e+07
   12.79             50050.1             81.8779        -1.48356e+06         5.17313e+07
   12.81               49845             81.6335        -1.47834e+06         5.15791e+07
   12.83             49642.1             81.3928        -1.47317e+06         5.14282e+07
   12.85             49441.4             81.1557        -1.46805e+06         5.12785e+07
   12.87             49242.9             80.9222        -1.46298e+06         5.11301e+07
   12.89             49046.5             80.6922        -1.45795e+06         5.09829e+07
   12.91             48852.3             80.4659        -1.45297e+06         5.08369e+07
   12.93             48660.3             80.2432        -1.44803e+06         5.06922e+07
   12.95             48470.4              80.024        -1.44314e+06         5.05486e+07
   12.97             48282.7             79.8084         -1.4383e+06         5.04063e+07
   12.99             48097.1             79.5964        -1.43351e+06         5.02652e+07
   13.01             47913.6             79.3879        -1.42876e+06         5.01253e+07
   13.03             47732.2              79.183        -1.42405e+06         4.99866e+07
   13.05             47552.9             78.9816        -1.41939e+06         4.98492e+07
   13.07             47375.7             78.7837        -1.41478e+06         4.97129e+07
   13.09             47200.7             78.5893        -1.41021e+06         4.95778e+07
   13.11             47027.6             78.3984        -1.40569e+06         4.94439e+07
   13.13             46856.7              78.211        -1.40121e+06         4.93112e+07
   13.15             46687.8             78.0271        -1.39678e+06         4.91796e+07
   13.17               46521             77.8467        -1.39239e+06         4.90493e+07
   13.19             46356.2             77.6697        -1.38805e+06         4.89201e+07
   13.21             46193.4             77.4961        -1.38375e+06         4.87921e+07
   13.23             46032.7              77.326        -1.37949e+06         4.86653e+07
   13.25               45874             77.1593        -1.37528e+06         4.85396e+07
   13.27             45717.3              76.996        -1.37111e+06         4.84151e+07
   13.29             45562.5             76.8361        -1.36699e+06         4.82917e+07
   13.31             45409.8             76.6795         -1.3629e+06         4.81695e+07
   13.33               45259             76.5263        -1.35887e+06         4.80484e+07
   13.35             45110.2             76.3765        -1.35487e+06         4.79285e+07
   13.37             44963.4               76.23        -1.35092e+06         4.78097e+07
   13.39             44818.5             76.0869        -1.34701e+06          4.7692e+07
   13.41             44675.5              75.947        -1.34314e+06         4.75754e+07
   13.43             44534.4             75.8104        -1.33932e+06           4.746e+07
   13.45             44395.3             75.6771        -1.33553e+06         4.73457e+07
   13.47             44258.1              75.547        -1.33179e+06         4.72325e+07
   13.49             44122.7             75.4202        -1.32809e+06         4.71204e+07
   13.51             43989.3             75.2966        -1.32444e+06         4.70094e+07
   13.53             43857.7             75.1762        -1.32082e+06         4.68995e+07
   13.55               43728              75.059        -1.31724e+06         4.67907e+07
   13.57             43600.1              74.945        -1.31371e+06          4.6683e+07
   13.59             43474.1             74.8341        -1.31022e+06         4.65763e+07
   13.61             43349.9             74.7264        -1.30676e+06         4.64707e+07
   13.63             43227.6             74.6218        -1.30335e+06         4.63662e+07
   13.65               43107             74.5202        -1.29998e+06         4.62628e+07
   13.67             42988.2             74.4218        -1.29664e+06         4.61604e+07
   13.69             42871.3             74.3264        -1.29335e+06         4.60591e+07
   13.71             42756.1              74.234        -1.29009e+06         4.59588e+07
   13.73             42642.7             74.1446        -1.28688e+06         4.58596e+07
   13.75               42531             74.0583         -1.2837e+06         4.57614e+07
   13.77             42421.1             73.9749        -1.28056e+06         4.56642e+07
   13.79             42312.9             73.8945        -1.27747e+06         4.55681e+07
   13.81             42206.5              73.817        -1.27441e+06         4.54729e+07
   13.83             42101.7             73.7424        -1.27138e+06         4.53788e+07
   13.85             41998.7             73.6707         -1.2684e+06         4.52857e+07
   13.87             41897.4             73.6018        -1.26545e+06         4.51936e+07
   13.89             41797.7             73.5358        -1.26254e+06         4.51026e+07
   13.91             41699.8             73.4727        -1.25967e+06         4.50125e+07
   13.93             41603.4             73.4123        -1.25683e+06         4.49233e+07
   13.95             41508.8             73.3547        -1.25404e+06         4.48352e+07
   13.97             41415.7             73.2998        -1.25127e+06          4.4748e+07
   13.99             41324.3             73.2477        -1.24855e+06         4.46618e+07
   14.01             41234.6             73.1982        -1.24586e+06         4.45766e+07
   14.03             41146.4             73.1515        -1.24321e+06         4.44924e+07
   14.05             41059.8             73.1074        -1.24059e+06          4.4409e+07
   14.07             40974.8             73.0659        -1.23801e+06         4.43267e+07
   14.09             40891.4              73.027        -1.23546e+06         4.42452e+07
   14.11             40809.5             72.9907        -1.23295e+06         4.41647e+07
   14.13             40729.2              72.957        -1.23047e+06         4.40852e+07
   14.15             40650.4             72.9257        -1.22803e+06         4.40065e+07
   14.17             40573.2              72.897        -1.22562e+06         4.39288e+07
   14.19             40497.5             72.8707        -1.22325e+06         4.38519e+07
   14.21             40423.3             72.8469        -1.22091e+06          4.3776e+07
   14.23             40350.5             72.8255         -1.2186e+06          4.3701e+07
   14.25             40279.3             72.8065        -1.21633e+06         4.36269e+07
   14.27             40209.5             72.7899        -1.21409e+06         4.35536e+07
   14.29             40141.2             72.7756        -1.21188e+06         4.34813e+07
   14.31             40074.4             72.7636         -1.2097e+06         4.34098e+07
   14.33               40009             72.7539        -1.20756e+06         4.33391e+07
   14.35               39945             72.7464        -1.20545e+06         4.32694e+07
   14.37             39882.5             72.7412        -1.20338e+06         4.32005e+07
   14.39             39821.3             72.7381        -1.20133e+06         4.31324e+07
   14.41             39761.6             72.7373        -1.19932e+06         4.30652e+07
   14.43             39703.2             72.7385        -1.19733e+06         4.29988e+07
   14.45             39646.2             72.7419        -1.19538e+06         4.29333e+07
   14.47             39590.6             72.7474        -1.19346e+06         4.28685e+07
   14.49             39536.3             72.7549        -1.19157e+06         4.28046e+07
   14.51             39483.4             72.7645        -1.18971e+06         4.27415e+07
   14.53             39431.7              72.776        -1.18788e+06         4.26792e+07
   14.55             39381.5             72.7895        -1.18608e+06         4.26177e+07
   14.57             39332.5              72.805        -1.18431e+06          4.2557e+07
   14.59             39284.8             72.8224        -1.18257e+06         4.24971e+07
   14.61             39238.4             72.8416        -1.18086e+06          4.2438e+07
   14.63             39193.3             72.8627        -1.17918e+06         4.23796e+07
   14.65             39149.4             72.8857        -1.17753e+06          4.2322e+07
   14.67             39106.8             72.9104         -1.1759e+06         4.22652e+07
   14.69             39065.4             72.9369        -1.17431e+06         4.22091e+07
   14.71             39025.3             72.9651        -1.17274e+06         4.21538e+07
   14.73             38986.4              72.995         -1.1712e+06         4.20992e+07
   14.75             38948.7             73.0266        -1.16969e+06         4.20454e+07
   14.77             38912.2             73.0598         -1.1682e+06         4.19923e+07
   14.79             38876.8             73.0947        -1.16674e+06         4.19399e+07
   14.81             38842.7             73.1311        -1.16531e+06         4.18882e+07
   14.83             38809.7             73.1691        -1.16391e+06         4.18372e+07
   14.85             38777.9             73.2087        -1.16253e+06          4.1787e+07
   14.87             38747.2             73.2497        -1.16118e+06         4.17374e+07
   14.89             38717.7             73.2922        -1.15985e+06         4.16886e+07
   14.91             38689.2             73.3361        -1.15855e+06         4.16404e+07
   14.93             38661.9             73.3815        -1.15728e+06         4.15929e+07
   14.95             38635.7             73.4282        -1.15603e+06         4.15461e+07
   14.97             38610.6             73.4762        -1.15481e+06         4.14999e+07
   14.99             38586.5             73.5256        -1.15361e+06         4.14544e+07
   15.01             38563.6             73.5763        -1.15244e+06         4.14096e+07
   15.03             38541.7             73.6282        -1.15129e+06         4.13654e+07
   15.05             38520.8             73.6814        -1.15016e+06         4.13219e+07
   15.07               38501             73.7358        -1.14906e+06          4.1279e+07
   15.09             38482.1             73.7913        -1.14798e+06         4.12367e+07
   15.11             38464.4              73.848        -1.14693e+06         4.11951e+07
   15.13             38447.6             73.9058         -1.1459e+06          4.1154e+07
   15.15             38431.8             73.9647        -1.14489e+06         4.11136e+07
   15.17               38417             74.0247        -1.14391e+06         4.10738e+07
   15.19             38403.1             74.0857        -1.14295e+06         4.10346e+07
   15.21             38390.3             74.1477        -1.14201e+06          4.0996e+07
   15.23             38378.4             74.2106        -1.14109e+06          4.0958e+07
   15.25             38367.4             74.2745         -1.1402e+06         4.09205e+07
   15.27             38357.4             74.3394        -1.13933e+06         4.08837e+07
   15.29             38348.3             74.4051        -1.13847e+06         4.08474e+07
   15.31             38340.1             74.4716        -1.13765e+06         4.08117e+07
   15.33             38332.8              74.539        -1.13684e+06         4.07765e+07
   15.35             38326.4             74.6072        -1.13605e+06         4.07419e+07
   15.37             38320.8             74.6762        -1.13528e+06         4.07078e+07
   15.39             38316.2              74.746        -1.13454e+06         4.06743e+07
   15.41             38312.4             74.8164        -1.13381e+06         4.06413e+07
   15.43             38309.5             74.8876         -1.1331e+06         4.06089e+07
   15.45             38307.4             74.9594        -1.13242e+06         4.05769e+07
   15.47             38306.1             75.0319        -1.13175e+06         4.05455e+07
   15.49             38305.7              75.105        -1.13111e+06         4.05146e+07
   15.51             38306.1             75.1787        -1.13048e+06         4.04842e+07
   15.53             38307.2             75.2529        -1.12987e+06         4.04543e+07
   15.55             38309.2             75.3277        -1.12928e+06         4.04249e+07
   15.57               38312              75.403        -1.12871e+06          4.0396e+07
   15.59             38315.5             75.4787        -1.12816e+06         4.03676e+07
   15.61             38319.8              75.555        -1.12762e+06         4.03396e+07
   15.63             38324.9             75.6316        -1.12711e+06         4.03122e+07
   15.65             38330.7             75.7087        -1.12661e+06         4.02852e+07
   15.67             38337.2             75.7862        -1.12613e+06         4.02586e+07
   15.69             38344.5              75.864        -1.12566e+06         4.02325e+07
   15.71             38352.5             75.9422        -1.12522e+06         4.02069e+07
   15.73             38361.1             76.0206        -1.12479e+06         4.01817e+07
   15.75             38370.5             76.0994        -1.12438e+06         4.01569e+07
   15.77             38380.6             76.1784        -1.12398e+06         4.01326e+07
   15.79             38391.4             76.2577         -1.1236e+06         4.01087e+07
   15.81             38402.8             76.3372        -1.12324e+06         4.00852e+07
   15.83             38414.9             76.4169         -1.1229e+06         4.00622e+07
   15.85             38427.7             76.4967        -1.12256e+06         4.00396e+07
   15.87               38441             76.5767        -1.12225e+06         4.00173e+07
   15.89             38455.1             76.6568        -1.12195e+06         3.99955e+07
   15.91             38469.7              76.737        -1.12167e+06         3.99741e+07
   15.93               38485             76.8173         -1.1214e+06          3.9953e+07
   15.95             38500.9             76.8977        -1.12114e+06         3.99324e+07
   15.97             38517.4             76.9781         -1.1209e+06         3.99121e+07
   15.99             38534.4             77.0585        -1.12068e+06         3.98922e+07
   16.01             38552.1             77.1389        -1.12047e+06         3.98727e+07
   16.03             38570.3             77.2193        -1.12027e+06         3.98535e+07
   16.05             38589.1             77.2996        -1.12009e+06         3.98347e+07
   16.07             38608.5             77.3798        -1.11992e+06         3.98162e+07
   16.09             38628.4               77.46        -1.11977e+06         3.97982e+07
   16.11             38648.8             77.5401        -1.11963e+06         3.97804e+07
   16.13             38669.8               77.62         -1.1195e+06          3.9763e+07
   16.15             38691.3             77.6997        -1.11939e+06         3.97459e+07
   16.17             38713.3             77.7793        -1.11929e+06         3.97292e+07
   16.19             38735.8             77.8588         -1.1192e+06         3.97128e+07
   16.21             38758.9              77.938        -1.11912e+06         3.96967e+07
   16.23             38782.4             78.0169        -1.11906e+06         3.96809e+07
   16.25             38806.4             78.0957        -1.11901e+06         3.96654e+07
   16.27             38830.8             78.1741        -1.11897e+06         3.96503e+07
   16.29             38855.8             78.2523        -1.11894e+06         3.96354e+07
   16.31             38881.2             78.3302        -1.11892e+06         3.96209e+07
   16.33               38907             78.4078        -1.11892e+06         3.96066e+07
   16.35             38933.3              78.485        -1.11893e+06         3.95926e+07
   16.37               38960             78.5619        -1.11895e+06         3.95789e+07
   16.39             38987.2             78.6384        -1.11898e+06         3.95655e+07
   16.41             39014.7             78.7145        -1.11902e+06         3.95524e+07
   16.43             39042.7             78.7902        -1.11907e+06         3.95395e+07
   16.45             39071.1             78.8655        -1.11913e+06         3.95269e+07
   16.47             39099.9             78.9403         -1.1192e+06         3.95146e+07
   16.49             39129.1             79.0147        -1.11929e+06         3.95025e+07
   16.51             39158.6             79.0887        -1.11938e+06         3.94907e+07
   16.53             39188.6             79.1621        -1.11948e+06         3.94791e+07
   16.55             39218.9             79.2351         -1.1196e+06         3.94678e+07
   16.57             39249.5             79.3075        -1.11972e+06         3.94567e+07
   16.59             39280.5             79.3794        -1.11985e+06         3.94458e+07
   16.61             39311.9             79.4508        -1.11999e+06         3.94352e+07
   16.63             39343.6             79.5216        -1.12015e+06         3.94248e+07
   16.65             39375.6             79.5919        -1.12031e+06         3.94146e+07
   16.67               39408             79.6615        -1.12048e+06         3.94047e+07
   16.69             39440.7             79.7306        -1.12065e+06         3.93949e+07
   16.71             39473.6              79.799        -1.12084e+06         3.93854e+07
   16.73             39506.9             79.8668        -1.12104e+06         3.93761e+07
   16.75             39540.5              79.934        -1.12124e+06          3.9367e+07
   16.77             39574.4             80.0005        -1.12145e+06         3.93581e+07
   16.79             39608.6             80.0663        -1.12167e+06         3.93494e+07
   16.81               39643             80.1315         -1.1219e+06         3.93409e+07
   16.83             39677.7              80.196        -1.12213e+06         3.93325e+07
   16.85             39712.7             80.2598        -1.12238e+06         3.93244e+07
   16.87             39747.9             80.3229        -1.12263e+06         3.93164e+07
   16.89             39783.4             80.3852        -1.12289e+06         3.93086e+07
   16.91             39819.2             80.4468        -1.12315e+06          3.9301e+07
   16.93             39855.1             80.5077        -1.12343e+06         3.92936e+07
   16.95             39891.3             80.5678        -1.12371e+06         3.92863e+07
   16.97             39927.8             80.6271        -1.12399e+06         3.92792e+07
   16.99             39964.4             80.6857        -1.12429e+06         3.92723e+07
   17.01             40001.3             80.7435        -1.12459e+06         3.92655e+07
   17.03             40038.3             80.8004        -1.12489e+06         3.92588e+07
   17.05             40075.6             80.8566        -1.12521e+06         3.92524e+07
   17.07             40113.1             80.9119        -1.12553e+06          3.9246e+07
   17.09             40150.7             80.9664        -1.12585e+06         3.92398e+07
   17.11             40188.6             81.0201        -1.12619e+06         3.92338e+07
   17.13             40226.6             81.0729        -1.12652e+06         3.92279e+07
   17.15             40264.8             81.1249        -1.12687e+06         3.92221e+07
   17.17             40303.2              81.176        -1.12722e+06         3.92164e+07
   17.19             40341.7             81.2262        -1.12757e+06         3.92109e+07
   17.21             40380.4             81.2755        -1.12793e+06         3.92055e+07
   17.23             40419.2              81.324        -1.12829e+06         3.92002e+07
   17.25             40458.1             81.3716        -1.12867e+06          3.9195e+07
   17.27             40497.3             81.4182        -1.12904e+06           3.919e+07
   17.29             40536.5             81.4639        -1.12942e+06         3.91851e+07
   17.31             40575.9             81.5088        -1.12981e+06         3.91802e+07
   17.33             40615.3             81.5527         -1.1302e+06         3.91755e+07
   17.35               40655             81.5956        -1.13059e+06         3.91709e+07
   17.37             40694.7             81.6376        -1.13099e+06         3.91664e+07
   17.39             40734.5             81.6787        -1.13139e+06          3.9162e+07
   17.41             40774.4             81.7188         -1.1318e+06         3.91576e+07
   17.43             40814.4              81.758        -1.13221e+06         3.91534e+07
   17.45             40854.6             81.7961        -1.13263e+06         3.91493e+07
   17.47             40894.8             81.8334        -1.13305e+06         3.91452e+07
   17.49               40935             81.8696        -1.13348e+06         3.91412e+07
   17.51             40975.4             81.9049         -1.1339e+06         3.91373e+07
   17.53             41015.8             81.9391        -1.13434e+06         3.91335e+07
   17.55             41056.3             81.9724        -1.13477e+06         3.91298e+07
   17.57             41096.9             82.0047        -1.13521e+06         3.91261e+07
   17.59             41137.5             82.0359        -1.13565e+06         3.91225e+07
   17.61             41178.1             82.0662         -1.1361e+06          3.9119e+07
   17.63             41218.8             82.0955        -1.13655e+06         3.91156e+07
   17.65             41259.6             82.1237          -1.137e+06         3.91122e+07
   17.67             41300.4             82.1509        -1.13745e+06         3.91089e+07
   17.69             41341.2             82.1771        -1.13791e+06         3.91056e+07
   17.71               41382             82.2023        -1.13837e+06         3.91024e+07
   17.73             41422.9             82.2264        -1.13883e+06         3.90992e+07
   17.75             41463.8             82.2495         -1.1393e+06         3.90961e+07
   17.77             41504.7             82.2716        -1.13977e+06         3.90931e+07
   17.79             41545.6             82.2926        -1.14024e+06           3.909e+07
   17.81             41586.5             82.3126        -1.14071e+06         3.90871e+07
   17.83             41627.5             82.3315        -1.14118e+06         3.90842e+07
   17.85             41668.4             82.3494        -1.14166e+06         3.90813e+07
   17.87             41709.3             82.3663        -1.14214e+06         3.90785e+07
   17.89             41750.2              82.382        -1.14262e+06         3.90757e+07
   17.91             41791.1             82.3968        -1.14311e+06         3.90729e+07
   17.93               41832             82.4105        -1.14359e+06         3.90702e+07
   17.95             41872.8             82.4231        -1.14408e+06         3.90675e+07
   17.97             41913.6             82.4346        -1.14457e+06         3.90648e+07
   17.99             41954.4             82.4451        -1.14506e+06         3.90621e+07
   18.01             41995.2             82.4545        -1.14555e+06         3.90595e+07
   18.03             42035.9             82.4629        -1.14604e+06         3.90569e+07
   18.05             42076.6             82.4702        -1.14654e+06         3.90544e+07
   18.07             42117.2             82.4765        -1.14703e+06         3.90518e+07
   18.09             42157.8             82.4816        -1.14753e+06         3.90493e+07
   18.11             42198.3             82.4857        -1.14803e+06         3.90468e+07
   18.13             42238.8             82.4888        -1.14853e+06         3.90442e+07
   18.15             42279.2             82.4908        -1.14903e+06         3.90418e+07
   18.17             42319.5             82.4917        -1.14953e+06         3.90393e+07
   18.19             42359.8             82.4915        -1.15003e+06         3.90368e+07
   18.21             42399.9             82.4903        -1.15053e+06         3.90343e+07
   18.23             42440.1              82.488        -1.15103e+06         3.90319e+07
   18.25             42480.1             82.4846        -1.15154e+06         3.90294e+07
   18.27               42520             82.4802        -1.15204e+06          3.9027e+07
   18.29             42559.9             82.4747        -1.15254e+06         3.90245e+07
   18.31             42599.7             82.4682        -1.15305e+06         3.90221e+07
   18.33             42639.4             82.4606        -1.15355e+06         3.90196e+07
   18.35             42678.9             82.4519        -1.15406e+06         3.90172e+07
   18.37             42718.4             82.4421        -1.15456e+06         3.90147e+07
   18.39             42757.8             82.4314        -1.15507e+06         3.90123e+07
   18.41             42797.1             82.4195        -1.15558e+06         3.90098e+07
   18.43             42836.2             82.4066        -1.15608e+06         3.90073e+07
   18.45             42875.2             82.3927        -1.15659e+06         3.90048e+07
   18.47             42914.2             82.3777        -1.15709e+06         3.90023e+07
   18.49               42953             82.3616        -1.15759e+06         3.89998e+07
   18.51             42991.7             82.3445         -1.1581e+06         3.89973e+07
   18.53             43030.2             82.3264         -1.1586e+06         3.89948e+07
   18.55             43068.6             82.3072        -1.15911e+06         3.89922e+07
   18.57             43106.9              82.287        -1.15961e+06         3.89896e+07
   18.59             43145.1             82.2657        -1.16011e+06          3.8987e+07
   18.61             43183.1             82.2434        -1.16061e+06         3.89844e+07
   18.63             43220.9             82.2201        -1.16111e+06         3.89818e+07
   18.65             43258.7             82.1958        -1.16161e+06         3.89791e+07
   18.67             43296.2             82.1704        -1.16211e+06         3.89764e+07
   18.69             43333.7              82.144        -1.16261e+06         3.89737e+07
   18.71             43370.9             82.1166        -1.16311e+06          3.8971e+07
   18.73               43408             82.0882         -1.1636e+06         3.89682e+07
   18.75               43445             82.0588         -1.1641e+06         3.89654e+07
   18.77             43481.8             82.0283        -1.16459e+06         3.89626e+07
   18.79             43518.4             81.9969        -1.16509e+06         3.89597e+07
   18.81             43554.8             81.9645        -1.16558e+06         3.89569e+07
   18.83             43591.1              81.931        -1.16607e+06         3.89539e+07
   18.85             43627.2             81.8966        -1.16656e+06          3.8951e+07
   18.87             43663.1             81.8612        -1.16704e+06          3.8948e+07
   18.89             43698.9             81.8248        -1.16753e+06          3.8945e+07
   18.91             43734.5             81.7875        -1.16801e+06         3.89419e+07
   18.93             43769.8             81.7492        -1.16849e+06         3.89388e+07
   18.95               43805             81.7099        -1.16897e+06         3.89357e+07
   18.97               43840             81.6696        -1.16945e+06         3.89325e+07
   18.99             43874.8             81.6284        -1.16993e+06         3.89293e+07
   19.01             43909.4             81.5862        -1.17041e+06          3.8926e+07
   19.03             43943.9             81.5431        -1.17088e+06         3.89227e+07
   19.05             43978.1              81.499        -1.17135e+06         3.89194e+07
   19.07             44012.1             81.4541        -1.17182e+06          3.8916e+07
   19.09             44045.9             81.4081        -1.17229e+06         3.89125e+07
   19.11             44079.5             81.3613        -1.17275e+06         3.89091e+07
   19.13             44112.8             81.3135        -1.17321e+06         3.89055e+07
   19.15               44146             81.2648        -1.17367e+06          3.8902e+07
   19.17               44179             81.2152        -1.17413e+06         3.88983e+07
   19.19             44211.7             81.1647        -1.17459e+06         3.88947e+07
   19.21             44244.2             81.1133        -1.17504e+06          3.8891e+07
   19.23             44276.5              81.061        -1.17549e+06         3.88872e+07
   19.25             44308.5             81.0078        -1.17594e+06         3.88834e+07
   19.27             44340.4             80.9538        -1.17639e+06         3.88795e+07
   19.29               44372             80.8988        -1.17683e+06         3.88756e+07
   19.31             44403.3              80.843        -1.17727e+06         3.88716e+07
   19.33             44434.4             80.7864        -1.17771e+06         3.88675e+07
   19.35             44465.3             80.7289        -1.17814e+06         3.88634e+07
   19.37               44496             80.6705        -1.17857e+06         3.88593e+07
   19.39             44526.4             80.6113          -1.179e+06         3.88551e+07
   19.41             44556.5             80.5512        -1.17943e+06         3.88508e+07
   19.43             44586.5             80.4904        -1.17985e+06         3.88465e+07
   19.45             44616.1             80.4287        -1.18027e+06         3.88421e+07
   19.47             44645.5             80.3661        -1.18069e+06         3.88377e+07
   19.49             44674.7             80.3028         -1.1811e+06         3.88332e+07
   19.51             44703.6             80.2387        -1.18151e+06         3.88286e+07
   19.53             44732.2             80.1738        -1.18192e+06          3.8824e+07
   19.55             44760.6             80.1081        -1.18233e+06         3.88193e+07
   19.57             44788.7             80.0416        -1.18273e+06         3.88146e+07
   19.59             44816.6             79.9743        -1.18312e+06         3.88098e+07
   19.61             44844.2             79.9063        -1.18352e+06         3.88049e+07
   19.63             44871.5             79.8375        -1.18391e+06            3.88e+07
   19.65             44898.5             79.7679         -1.1843e+06          3.8795e+07
   19.67             44925.3             79.6976        -1.18468e+06         3.87899e+07
   19.69             44951.8             79.6266        -1.18506e+06         3.87848e+07
   19.71               44978             79.5548        -1.18543e+06         3.87796e+07
   19.73             45003.9             79.4823        -1.18581e+06         3.87743e+07
   19.75             45029.5             79.4091        -1.18617e+06          3.8769e+07
   19.77             45054.9             79.3352        -1.18654e+06         3.87635e+07
   19.79               45080             79.2606         -1.1869e+06         3.87581e+07
   19.81             45104.8             79.1852        -1.18725e+06         3.87525e+07
   19.83             45129.2             79.1092        -1.18761e+06         3.87469e+07
   19.85             45153.4             79.0325        -1.18796e+06         3.87412e+07
   19.87             45177.3             78.9552         -1.1883e+06         3.87355e+07
   19.89             45200.9             78.8772        -1.18864e+06         3.87296e+07
   19.91             45224.3             78.7985        -1.18898e+06         3.87237e+07
   19.93             45247.3             78.7191        -1.18931e+06         3.87177e+07
   19.95               45270             78.6392        -1.18963e+06         3.87117e+07
   19.97             45292.3             78.5585        -1.18996e+06         3.87056e+07
   19.99             45314.4             78.4773        -1.19028e+06         3.86994e+07
