## w(eV)         sigma(Sm^-1)     kappa(W(mK)^-1)        L12/e(Am^-1)      L22/e^2(Wm^-1)
    0.01              364239              569.65        -7.32691e+06          2.0135e+08
    0.03              364235             569.643        -7.32687e+06         2.01349e+08
    0.05              364229             569.629        -7.32677e+06         2.01347e+08
    0.07              364219             569.609        -7.32664e+06         2.01343e+08
    0.09              364207             569.581        -7.32645e+06         2.01338e+08
    0.11              364191             569.546        -7.32622e+06         2.01332e+08
    0.13              364171             569.504        -7.32595e+06         2.01325e+08
    0.15              364149             569.455        -7.32562e+06         2.01316e+08
    0.17              364123             569.399        -7.32526e+06         2.01307e+08
    0.19              364094             569.336        -7.32484e+06         2.01296e+08
    0.21              364062             569.267        -7.32438e+06         2.01283e+08
    0.23              364027              569.19        -7.32387e+06          2.0127e+08
    0.25              363989             569.106        -7.32332e+06         2.01255e+08
    0.27              363947             569.016        -7.32272e+06          2.0124e+08
    0.29              363902             568.918        -7.32208e+06         2.01223e+08
    0.31              363854             568.813        -7.32139e+06         2.01204e+08
    0.33              363803             568.702        -7.32065e+06         2.01185e+08
    0.35              363749             568.583        -7.31987e+06         2.01164e+08
    0.37              363691             568.458        -7.31904e+06         2.01142e+08
    0.39              363630             568.326        -7.31816e+06         2.01119e+08
    0.41              363566             568.187        -7.31724e+06         2.01095e+08
    0.43              363499              568.04        -7.31627e+06         2.01069e+08
    0.45              363429             567.887        -7.31526e+06         2.01042e+08
    0.47              363355             567.727         -7.3142e+06         2.01014e+08
    0.49              363279             567.561        -7.31309e+06         2.00985e+08
    0.51              363199             567.387        -7.31194e+06         2.00954e+08
    0.53              363116             567.206        -7.31074e+06         2.00923e+08
    0.55              363029             567.019         -7.3095e+06          2.0089e+08
    0.57              362940             566.824         -7.3082e+06         2.00856e+08
    0.59              362847             566.623        -7.30687e+06          2.0082e+08
    0.61              362751             566.415        -7.30548e+06         2.00784e+08
    0.63              362652               566.2        -7.30405e+06         2.00746e+08
    0.65              362550             565.978        -7.30257e+06         2.00707e+08
    0.67              362445              565.75        -7.30105e+06         2.00667e+08
    0.69              362336             565.514        -7.29948e+06         2.00625e+08
    0.71              362224             565.272        -7.29786e+06         2.00582e+08
    0.73              362109             565.023         -7.2962e+06         2.00538e+08
    0.75              361991             564.767        -7.29449e+06         2.00493e+08
    0.77              361870             564.505        -7.29273e+06         2.00447e+08
    0.79              361746             564.236        -7.29093e+06         2.00399e+08
    0.81              361618             563.959        -7.28907e+06          2.0035e+08
    0.83              361487             563.677        -7.28718e+06           2.003e+08
    0.85              361353             563.387        -7.28523e+06         2.00248e+08
    0.87              361216             563.091        -7.28324e+06         2.00196e+08
    0.89              361076             562.788         -7.2812e+06         2.00142e+08
    0.91              360933             562.479        -7.27912e+06         2.00087e+08
    0.93              360786             562.162        -7.27699e+06          2.0003e+08
    0.95              360637             561.839        -7.27481e+06         1.99973e+08
    0.97              360484              561.51        -7.27258e+06         1.99914e+08
    0.99              360328             561.174        -7.27031e+06         1.99854e+08
    1.01              360169             560.831        -7.26799e+06         1.99793e+08
    1.03              360007             560.481        -7.26562e+06          1.9973e+08
    1.05              359841             560.126        -7.26321e+06         1.99666e+08
    1.07              359673             559.763        -7.26075e+06         1.99601e+08
    1.09              359501             559.394        -7.25824e+06         1.99535e+08
    1.11              359326             559.018        -7.25568e+06         1.99467e+08
    1.13              359148             558.636        -7.25308e+06         1.99399e+08
    1.15              358967             558.247        -7.25043e+06         1.99329e+08
    1.17              358783             557.852        -7.24773e+06         1.99257e+08
    1.19              358596             557.451        -7.24499e+06         1.99185e+08
    1.21              358406             557.043        -7.24219e+06         1.99111e+08
    1.23              358212             556.628        -7.23935e+06         1.99036e+08
    1.25              358016             556.207        -7.23646e+06         1.98959e+08
    1.27              357816              555.78        -7.23353e+06         1.98882e+08
    1.29              357613             555.346        -7.23054e+06         1.98803e+08
    1.31              357407             554.906        -7.22751e+06         1.98723e+08
    1.33              357198              554.46        -7.22443e+06         1.98641e+08
    1.35              356986             554.007         -7.2213e+06         1.98559e+08
    1.37              356771             553.548        -7.21813e+06         1.98475e+08
    1.39              356553             553.083         -7.2149e+06          1.9839e+08
    1.41              356331             552.611        -7.21163e+06         1.98303e+08
    1.43              356107             552.133        -7.20831e+06         1.98216e+08
    1.45              355879             551.649        -7.20495e+06         1.98127e+08
    1.47              355649             551.159        -7.20153e+06         1.98036e+08
    1.49              355415             550.663        -7.19807e+06         1.97945e+08
    1.51              355179              550.16        -7.19455e+06         1.97852e+08
    1.53              354939             549.652        -7.19099e+06         1.97758e+08
    1.55              354696             549.137        -7.18738e+06         1.97663e+08
    1.57              354450             548.616        -7.18372e+06         1.97566e+08
    1.59              354201             548.089        -7.18002e+06         1.97468e+08
    1.61              353949             547.556        -7.17626e+06         1.97369e+08
    1.63              353694             547.017        -7.17246e+06         1.97269e+08
    1.65              353436             546.472        -7.16861e+06         1.97167e+08
    1.67              353175             545.921        -7.16471e+06         1.97064e+08
    1.69              352911             545.364        -7.16076e+06         1.96959e+08
    1.71              352644             544.801        -7.15676e+06         1.96854e+08
    1.73              352374             544.232        -7.15271e+06         1.96747e+08
    1.75              352100             543.657        -7.14861e+06         1.96639e+08
    1.77              351824             543.077        -7.14447e+06         1.96529e+08
    1.79              351545             542.491        -7.14027e+06         1.96419e+08
    1.81              351263             541.898        -7.13603e+06         1.96306e+08
    1.83              350978               541.3        -7.13174e+06         1.96193e+08
    1.85              350689             540.697         -7.1274e+06         1.96078e+08
    1.87              350398             540.087          -7.123e+06         1.95963e+08
    1.89              350104             539.472        -7.11856e+06         1.95845e+08
    1.91              349807             538.851        -7.11407e+06         1.95727e+08
    1.93              349507             538.225        -7.10953e+06         1.95607e+08
    1.95              349204             537.593        -7.10495e+06         1.95486e+08
    1.97              348898             536.955        -7.10031e+06         1.95363e+08
    1.99              348589             536.312        -7.09562e+06          1.9524e+08
    2.01              348277             535.663        -7.09088e+06         1.95114e+08
    2.03              347962             535.009        -7.08609e+06         1.94988e+08
    2.05              347644             534.349        -7.08126e+06          1.9486e+08
    2.07              347323             533.684        -7.07637e+06         1.94731e+08
    2.09              346999             533.013        -7.07143e+06         1.94601e+08
    2.11              346672             532.337        -7.06644e+06          1.9447e+08
    2.13              346343             531.656        -7.06141e+06         1.94337e+08
    2.15              346010             530.969        -7.05632e+06         1.94202e+08
    2.17              345675             530.277        -7.05118e+06         1.94067e+08
    2.19              345336              529.58          -7.046e+06          1.9393e+08
    2.21              344995             528.877        -7.04076e+06         1.93792e+08
    2.23              344651             528.169        -7.03547e+06         1.93652e+08
    2.25              344304             527.456        -7.03013e+06         1.93511e+08
    2.27              343954             526.738        -7.02475e+06         1.93369e+08
    2.29              343601             526.015        -7.01931e+06         1.93226e+08
    2.31              343245             525.286        -7.01382e+06         1.93081e+08
    2.33              342887             524.553        -7.00828e+06         1.92935e+08
    2.35              342525             523.814        -7.00269e+06         1.92787e+08
    2.37              342161             523.071        -6.99705e+06         1.92639e+08
    2.39              341794             522.322        -6.99136e+06         1.92488e+08
    2.41              341424             521.569        -6.98562e+06         1.92337e+08
    2.43              341051              520.81        -6.97983e+06         1.92184e+08
    2.45              340675             520.047        -6.97398e+06          1.9203e+08
    2.47              340297             519.279        -6.96809e+06         1.91875e+08
    2.49              339916             518.506        -6.96214e+06         1.91718e+08
    2.51              339531             517.729        -6.95615e+06          1.9156e+08
    2.53              339145             516.946         -6.9501e+06           1.914e+08
    2.55              338755             516.159          -6.944e+06          1.9124e+08
    2.57              338362             515.367        -6.93786e+06         1.91077e+08
    2.59              337967             514.571        -6.93166e+06         1.90914e+08
    2.61              337569              513.77        -6.92541e+06         1.90749e+08
    2.63              337168             512.964        -6.91911e+06         1.90583e+08
    2.65              336764             512.154        -6.91275e+06         1.90416e+08
    2.67              336358             511.339        -6.90635e+06         1.90247e+08
    2.69              335949              510.52        -6.89989e+06         1.90077e+08
    2.71              335537             509.696        -6.89339e+06         1.89905e+08
    2.73              335122             508.868        -6.88683e+06         1.89732e+08
    2.75              334704             508.036        -6.88022e+06         1.89558e+08
    2.77              334284             507.199        -6.87356e+06         1.89383e+08
    2.79              333861             506.358        -6.86685e+06         1.89206e+08
    2.81              333436             505.512        -6.86009e+06         1.89028e+08
    2.83              333007             504.663        -6.85327e+06         1.88848e+08
    2.85              332576             503.809        -6.84641e+06         1.88667e+08
    2.87              332143             502.951        -6.83949e+06         1.88485e+08
    2.89              331706             502.089        -6.83252e+06         1.88301e+08
    2.91              331267             501.222         -6.8255e+06         1.88116e+08
    2.93              330826             500.352        -6.81843e+06          1.8793e+08
    2.95              330381             499.478        -6.81131e+06         1.87742e+08
    2.97              329934             498.599        -6.80414e+06         1.87553e+08
    2.99              329484             497.717        -6.79691e+06         1.87363e+08
    3.01              329032             496.831        -6.78963e+06         1.87171e+08
    3.03              328577             495.941         -6.7823e+06         1.86978e+08
    3.05              328119             495.047        -6.77492e+06         1.86784e+08
    3.07              327659             494.149        -6.76749e+06         1.86588e+08
    3.09              327196             493.248        -6.76001e+06         1.86391e+08
    3.11              326731             492.343        -6.75247e+06         1.86193e+08
    3.13              326263             491.434        -6.74488e+06         1.85993e+08
    3.15              325792             490.521        -6.73725e+06         1.85792e+08
    3.17              325319             489.605        -6.72956e+06         1.85589e+08
    3.19              324843             488.685        -6.72181e+06         1.85385e+08
    3.21              324365             487.762        -6.71402e+06          1.8518e+08
    3.23              323884             486.835        -6.70617e+06         1.84974e+08
    3.25              323401             485.904        -6.69828e+06         1.84766e+08
    3.27              322915             484.971        -6.69033e+06         1.84557e+08
    3.29              322426             484.033        -6.68233e+06         1.84346e+08
    3.31              321935             483.093        -6.67428e+06         1.84134e+08
    3.33              321441             482.149        -6.66617e+06         1.83921e+08
    3.35              320945             481.202        -6.65802e+06         1.83706e+08
    3.37              320447             480.251        -6.64981e+06          1.8349e+08
    3.39              319946             479.298        -6.64155e+06         1.83273e+08
    3.41              319442             478.341        -6.63324e+06         1.83054e+08
    3.43              318936             477.381        -6.62488e+06         1.82834e+08
    3.45              318428             476.418        -6.61647e+06         1.82613e+08
    3.47              317917             475.452        -6.60801e+06          1.8239e+08
    3.49              317404             474.482        -6.59949e+06         1.82166e+08
    3.51              316888              473.51        -6.59092e+06         1.81941e+08
    3.53              316370             472.535        -6.58231e+06         1.81714e+08
    3.55              315849             471.557        -6.57364e+06         1.81486e+08
    3.57              315326             470.576        -6.56491e+06         1.81257e+08
    3.59              314801             469.592        -6.55614e+06         1.81026e+08
    3.61              314273             468.606        -6.54732e+06         1.80794e+08
    3.63              313743             467.617        -6.53844e+06         1.80561e+08
    3.65              313210             466.625        -6.52952e+06         1.80326e+08
    3.67              312675              465.63        -6.52054e+06          1.8009e+08
    3.69              312138             464.632        -6.51151e+06         1.79852e+08
    3.71              311598             463.633        -6.50243e+06         1.79614e+08
    3.73              311056              462.63         -6.4933e+06         1.79374e+08
    3.75              310512             461.625        -6.48412e+06         1.79132e+08
    3.77              309966             460.617        -6.47488e+06          1.7889e+08
    3.79              309417             459.607         -6.4656e+06         1.78646e+08
    3.81              308865             458.595        -6.45627e+06           1.784e+08
    3.83              308312              457.58        -6.44688e+06         1.78154e+08
    3.85              307756             456.563        -6.43744e+06         1.77906e+08
    3.87              307198             455.543        -6.42796e+06         1.77656e+08
    3.89              306638             454.522        -6.41842e+06         1.77406e+08
    3.91              306076             453.498        -6.40883e+06         1.77154e+08
    3.93              305511             452.472        -6.39919e+06           1.769e+08
    3.95              304944             451.443         -6.3895e+06         1.76646e+08
    3.97              304375             450.413        -6.37976e+06          1.7639e+08
    3.99              303804              449.38        -6.36998e+06         1.76133e+08
    4.01              303230             448.346        -6.36014e+06         1.75874e+08
    4.03              302654             447.309        -6.35025e+06         1.75615e+08
    4.05              302077             446.271        -6.34031e+06         1.75353e+08
    4.07              301497              445.23        -6.33032e+06         1.75091e+08
    4.09              300914             444.188        -6.32028e+06         1.74827e+08
    4.11              300330             443.144        -6.31019e+06         1.74562e+08
    4.13              299744             442.098        -6.30005e+06         1.74296e+08
    4.15              299155              441.05        -6.28986e+06         1.74029e+08
    4.17              298564                 440        -6.27962e+06          1.7376e+08
    4.19              297972             438.949        -6.26933e+06          1.7349e+08
    4.21              297377             437.896          -6.259e+06         1.73218e+08
    4.23              296780             436.842        -6.24861e+06         1.72946e+08
    4.25              296181             435.786        -6.23818e+06         1.72672e+08
    4.27              295580             434.728        -6.22769e+06         1.72397e+08
    4.29              294977             433.669        -6.21716e+06          1.7212e+08
    4.31              294372             432.608        -6.20658e+06         1.71842e+08
    4.33              293765             431.546        -6.19595e+06         1.71563e+08
    4.35              293156             430.483        -6.18527e+06         1.71283e+08
    4.37              292545             429.418        -6.17454e+06         1.71002e+08
    4.39              291932             428.352        -6.16377e+06         1.70719e+08
    4.41              291317             427.284        -6.15294e+06         1.70435e+08
    4.43              290700             426.215        -6.14207e+06          1.7015e+08
    4.45              290081             425.146        -6.13115e+06         1.69863e+08
    4.47              289460             424.074        -6.12018e+06         1.69575e+08
    4.49              288837             423.002        -6.10917e+06         1.69286e+08
    4.51              288213             421.929        -6.09811e+06         1.68996e+08
    4.53              287586             420.854          -6.087e+06         1.68705e+08
    4.55              286958             419.779        -6.07584e+06         1.68412e+08
    4.57              286327             418.702        -6.06464e+06         1.68118e+08
    4.59              285695             417.624        -6.05338e+06         1.67823e+08
    4.61              285061             416.546        -6.04209e+06         1.67527e+08
    4.63              284426             415.467        -6.03074e+06         1.67229e+08
    4.65              283788             414.386        -6.01935e+06         1.66931e+08
    4.67              283148             413.305        -6.00791e+06         1.66631e+08
    4.69              282507             412.223        -5.99643e+06          1.6633e+08
    4.71              281864             411.141         -5.9849e+06         1.66028e+08
    4.73              281219             410.057        -5.97333e+06         1.65724e+08
    4.75              280573             408.973        -5.96171e+06         1.65419e+08
    4.77              279924             407.889        -5.95004e+06         1.65114e+08
    4.79              279274             406.803        -5.93833e+06         1.64807e+08
    4.81              278623             405.717        -5.92657e+06         1.64499e+08
    4.83              277969             404.631        -5.91477e+06         1.64189e+08
    4.85              277314             403.544        -5.90292e+06         1.63879e+08
    4.87              276657             402.456        -5.89103e+06         1.63567e+08
    4.89              275999             401.368         -5.8791e+06         1.63254e+08
    4.91              275338              400.28        -5.86712e+06          1.6294e+08
    4.93              274677             399.191        -5.85509e+06         1.62625e+08
    4.95              274013             398.102        -5.84303e+06         1.62309e+08
    4.97              273348             397.013        -5.83092e+06         1.61992e+08
    4.99              272682             395.923        -5.81876e+06         1.61674e+08
    5.01              272013             394.833        -5.80657e+06         1.61354e+08
    5.03              271344             393.743        -5.79432e+06         1.61033e+08
    5.05              270672             392.652        -5.78204e+06         1.60712e+08
    5.07              269999             391.561        -5.76972e+06         1.60389e+08
    5.09              269325             390.471        -5.75735e+06         1.60065e+08
    5.11              268649              389.38        -5.74494e+06          1.5974e+08
    5.13              267972             388.289        -5.73249e+06         1.59414e+08
    5.15              267293             387.198        -5.71999e+06         1.59087e+08
    5.17              266612             386.107        -5.70746e+06         1.58758e+08
    5.19              265930             385.016        -5.69488e+06         1.58429e+08
    5.21              265247             383.925        -5.68226e+06         1.58099e+08
    5.23              264562             382.834        -5.66961e+06         1.57767e+08
    5.25              263876             381.744        -5.65691e+06         1.57435e+08
    5.27              263189             380.653        -5.64417e+06         1.57101e+08
    5.29              262500             379.563        -5.63139e+06         1.56767e+08
    5.31              261809             378.473        -5.61857e+06         1.56431e+08
    5.33              261118             377.383        -5.60571e+06         1.56095e+08
    5.35              260425             376.293        -5.59282e+06         1.55757e+08
    5.37              259730             375.204        -5.57988e+06         1.55419e+08
    5.39              259035             374.115         -5.5669e+06         1.55079e+08
    5.41              258338             373.026        -5.55389e+06         1.54738e+08
    5.43              257639             371.938        -5.54084e+06         1.54397e+08
    5.45              256940              370.85        -5.52775e+06         1.54054e+08
    5.47              256239             369.762        -5.51462e+06         1.53711e+08
    5.49              255537             368.675        -5.50146e+06         1.53366e+08
    5.51              254834             367.589        -5.48825e+06         1.53021e+08
    5.53              254129             366.503        -5.47502e+06         1.52675e+08
    5.55              253424             365.417        -5.46174e+06         1.52327e+08
    5.57              252717             364.332        -5.44843e+06         1.51979e+08
    5.59              252009             363.248        -5.43508e+06          1.5163e+08
    5.61              251300             362.164         -5.4217e+06          1.5128e+08
    5.63              250589             361.081        -5.40828e+06         1.50929e+08
    5.65              249878             359.999        -5.39482e+06         1.50577e+08
    5.67              249165             358.918        -5.38133e+06         1.50224e+08
    5.69              248452             357.837        -5.36781e+06          1.4987e+08
    5.71              247737             356.757        -5.35425e+06         1.49516e+08
    5.73              247022             355.677        -5.34066e+06         1.49161e+08
    5.75              246305             354.599        -5.32704e+06         1.48804e+08
    5.77              245587             353.521        -5.31338e+06         1.48447e+08
    5.79              244868             352.444        -5.29969e+06         1.48089e+08
    5.81              244148             351.368        -5.28596e+06          1.4773e+08
    5.83              243428             350.293         -5.2722e+06         1.47371e+08
    5.85              242706             349.219        -5.25841e+06          1.4701e+08
    5.87              241983             348.146        -5.24459e+06         1.46649e+08
    5.89              241260             347.074        -5.23074e+06         1.46287e+08
    5.91              240535             346.003        -5.21686e+06         1.45924e+08
    5.93              239810             344.933        -5.20294e+06          1.4556e+08
    5.95              239084             343.864          -5.189e+06         1.45196e+08
    5.97              238357             342.796        -5.17503e+06          1.4483e+08
    5.99              237629             341.729        -5.16102e+06         1.44464e+08
    6.01              236900             340.663        -5.14699e+06         1.44098e+08
    6.03              236170             339.598        -5.13293e+06          1.4373e+08
    6.05              235440             338.535        -5.11883e+06         1.43362e+08
    6.07              234709             337.473        -5.10471e+06         1.42993e+08
    6.09              233977             336.411        -5.09057e+06         1.42623e+08
    6.11              233244             335.352        -5.07639e+06         1.42253e+08
    6.13              232511             334.293        -5.06219e+06         1.41882e+08
    6.15              231777             333.236        -5.04796e+06          1.4151e+08
    6.17              231042              332.18         -5.0337e+06         1.41137e+08
    6.19              230306             331.125        -5.01942e+06         1.40764e+08
    6.21              229570             330.072        -5.00511e+06         1.40391e+08
    6.23              228833              329.02        -4.99078e+06         1.40016e+08
    6.25              228096             327.969        -4.97642e+06         1.39641e+08
    6.27              227358              326.92        -4.96204e+06         1.39265e+08
    6.29              226619             325.872        -4.94763e+06         1.38889e+08
    6.31              225880             324.825         -4.9332e+06         1.38512e+08
    6.33              225140              323.78        -4.91874e+06         1.38134e+08
    6.35              224400             322.737        -4.90426e+06         1.37756e+08
    6.37              223659             321.695        -4.88976e+06         1.37378e+08
    6.39              222918             320.654        -4.87524e+06         1.36998e+08
    6.41              222176             319.616        -4.86069e+06         1.36618e+08
    6.43              221434             318.578        -4.84612e+06         1.36238e+08
    6.45              220691             317.542        -4.83153e+06         1.35857e+08
    6.47              219948             316.508        -4.81692e+06         1.35476e+08
    6.49              219204             315.475        -4.80229e+06         1.35093e+08
    6.51              218460             314.444        -4.78764e+06         1.34711e+08
    6.53              217716             313.415        -4.77297e+06         1.34328e+08
    6.55              216971             312.387        -4.75828e+06         1.33944e+08
    6.57              216226             311.361        -4.74357e+06          1.3356e+08
    6.59              215481             310.336        -4.72884e+06         1.33176e+08
    6.61              214735             309.314         -4.7141e+06         1.32791e+08
    6.63              213989             308.293        -4.69934e+06         1.32406e+08
    6.65              213243             307.273        -4.68456e+06          1.3202e+08
    6.67              212497             306.256        -4.66976e+06         1.31634e+08
    6.69              211750              305.24        -4.65495e+06         1.31247e+08
    6.71              211003             304.226        -4.64012e+06          1.3086e+08
    6.73              210256             303.214        -4.62527e+06         1.30472e+08
    6.75              209508             302.203        -4.61041e+06         1.30085e+08
    6.77              208761             301.195        -4.59554e+06         1.29696e+08
    6.79              208013             300.188        -4.58065e+06         1.29308e+08
    6.81              207265             299.183        -4.56575e+06         1.28919e+08
    6.83              206517              298.18        -4.55083e+06          1.2853e+08
    6.85              205769             297.179         -4.5359e+06          1.2814e+08
    6.87              205021             296.179        -4.52096e+06          1.2775e+08
    6.89              204273             295.182        -4.50601e+06          1.2736e+08
    6.91              203525             294.186        -4.49104e+06          1.2697e+08
    6.93              202777             293.193        -4.47606e+06         1.26579e+08
    6.95              202029             292.201        -4.46107e+06         1.26188e+08
    6.97              201281             291.212        -4.44608e+06         1.25796e+08
    6.99              200532             290.224        -4.43107e+06         1.25405e+08
    7.01              199784             289.238        -4.41605e+06         1.25013e+08
    7.03              199036             288.254        -4.40102e+06         1.24621e+08
    7.05              198288             287.273        -4.38599e+06         1.24229e+08
    7.07              197541             286.293        -4.37095e+06         1.23836e+08
    7.09              196793             285.315        -4.35589e+06         1.23444e+08
    7.11              196045              284.34        -4.34084e+06         1.23051e+08
    7.13              195298             283.366        -4.32577e+06         1.22658e+08
    7.15              194551             282.394         -4.3107e+06         1.22265e+08
    7.17              193804             281.425        -4.29562e+06         1.21872e+08
    7.19              193057             280.458        -4.28054e+06         1.21478e+08
    7.21              192311             279.492        -4.26545e+06         1.21085e+08
    7.23              191564             278.529        -4.25036e+06         1.20691e+08
    7.25              190818             277.568        -4.23526e+06         1.20297e+08
    7.27              190073             276.609        -4.22016e+06         1.19904e+08
    7.29              189327             275.652        -4.20506e+06          1.1951e+08
    7.31              188582             274.697        -4.18995e+06         1.19116e+08
    7.33              187838             273.745        -4.17484e+06         1.18722e+08
    7.35              187093             272.794        -4.15973e+06         1.18328e+08
    7.37              186349             271.846        -4.14462e+06         1.17934e+08
    7.39              185606               270.9        -4.12951e+06          1.1754e+08
    7.41              184863             269.956         -4.1144e+06         1.17146e+08
    7.43              184120             269.014        -4.09929e+06         1.16752e+08
    7.45              183378             268.075        -4.08417e+06         1.16358e+08
    7.47              182636             267.138        -4.06906e+06         1.15964e+08
    7.49              181895             266.202        -4.05395e+06          1.1557e+08
    7.51              181155              265.27        -4.03885e+06         1.15176e+08
    7.53              180414             264.339        -4.02374e+06         1.14782e+08
    7.55              179675             263.411        -4.00864e+06         1.14388e+08
    7.57              178936             262.484        -3.99354e+06         1.13995e+08
    7.59              178197              261.56        -3.97845e+06         1.13601e+08
    7.61              177460             260.639        -3.96336e+06         1.13208e+08
    7.63              176723             259.719        -3.94827e+06         1.12815e+08
    7.65              175986             258.802        -3.93319e+06         1.12422e+08
    7.67              175250             257.887        -3.91812e+06         1.12029e+08
    7.69              174515             256.975        -3.90305e+06         1.11636e+08
    7.71              173781             256.065        -3.88799e+06         1.11243e+08
    7.73              173047             255.157        -3.87293e+06         1.10851e+08
    7.75              172314             254.251        -3.85788e+06         1.10459e+08
    7.77              171582             253.348        -3.84285e+06         1.10067e+08
    7.79              170850             252.447        -3.82782e+06         1.09675e+08
    7.81              170120             251.548        -3.81279e+06         1.09284e+08
    7.83              169390             250.652        -3.79778e+06         1.08892e+08
    7.85              168661             249.758        -3.78278e+06         1.08502e+08
    7.87              167933             248.866        -3.76779e+06         1.08111e+08
    7.89              167206             247.976        -3.75281e+06         1.07721e+08
    7.91              166479             247.089        -3.73784e+06          1.0733e+08
    7.93              165754             246.205        -3.72288e+06         1.06941e+08
    7.95              165029             245.322        -3.70794e+06         1.06551e+08
    7.97              164306             244.443        -3.69301e+06         1.06162e+08
    7.99              163583             243.565        -3.67809e+06         1.05774e+08
    8.01              162862              242.69        -3.66319e+06         1.05385e+08
    8.03              162141             241.817         -3.6483e+06         1.04997e+08
    8.05              161422             240.946        -3.63342e+06          1.0461e+08
    8.07              160703             240.078        -3.61856e+06         1.04223e+08
    8.09              159985             239.213        -3.60371e+06         1.03836e+08
    8.11              159269             238.349        -3.58889e+06          1.0345e+08
    8.13              158554             237.488        -3.57407e+06         1.03064e+08
    8.15              157840              236.63        -3.55928e+06         1.02678e+08
    8.17              157126             235.774         -3.5445e+06         1.02293e+08
    8.19              156414              234.92        -3.52974e+06         1.01909e+08
    8.21              155704             234.068          -3.515e+06         1.01525e+08
    8.23              154994             233.219        -3.50028e+06         1.01141e+08
    8.25              154286             232.373        -3.48558e+06         1.00758e+08
    8.27              153579             231.529         -3.4709e+06         1.00376e+08
    8.29              152873             230.687        -3.45623e+06         9.99941e+07
    8.31              152168             229.848        -3.44159e+06         9.96128e+07
    8.33              151465             229.011        -3.42697e+06          9.9232e+07
    8.35              150762             228.176        -3.41237e+06         9.88518e+07
    8.37              150062             227.344         -3.3978e+06         9.84722e+07
    8.39              149362             226.515        -3.38324e+06         9.80932e+07
    8.41              148664             225.687        -3.36871e+06         9.77148e+07
    8.43              147967             224.863        -3.35421e+06          9.7337e+07
    8.45              147272              224.04        -3.33972e+06         9.69599e+07
    8.47              146578              223.22        -3.32527e+06         9.65834e+07
    8.49              145885             222.403        -3.31083e+06         9.62075e+07
    8.51              145194             221.588        -3.29642e+06         9.58324e+07
    8.53              144504             220.775        -3.28204e+06         9.54579e+07
    8.55              143816             219.965        -3.26769e+06         9.50841e+07
    8.57              143129             219.157        -3.25336e+06          9.4711e+07
    8.59              142443             218.352        -3.23905e+06         9.43386e+07
    8.61              141760             217.549        -3.22478e+06          9.3967e+07
    8.63              141077             216.749        -3.21053e+06         9.35961e+07
    8.65              140397             215.951        -3.19631e+06         9.32259e+07
    8.67              139717             215.155        -3.18213e+06         9.28565e+07
    8.69              139040             214.362        -3.16797e+06         9.24879e+07
    8.71              138364             213.571        -3.15384e+06           9.212e+07
    8.73              137689             212.783        -3.13974e+06          9.1753e+07
    8.75              137016             211.997        -3.12567e+06         9.13868e+07
    8.77              136345             211.214        -3.11163e+06         9.10214e+07
    8.79              135676             210.433        -3.09762e+06         9.06568e+07
    8.81              135008             209.654        -3.08365e+06          9.0293e+07
    8.83              134342             208.878         -3.0697e+06         8.99301e+07
    8.85              133677             208.105        -3.05579e+06         8.95681e+07
    8.87              133015             207.334        -3.04192e+06         8.92069e+07
    8.89              132354             206.565        -3.02807e+06         8.88467e+07
    8.91              131694             205.799        -3.01426e+06         8.84873e+07
    8.93              131037             205.035        -3.00049e+06         8.81288e+07
    8.95              130381             204.273        -2.98675e+06         8.77713e+07
    8.97              129727             203.514        -2.97305e+06         8.74146e+07
    8.99              129075             202.758        -2.95938e+06         8.70589e+07
    9.01              128425             202.004        -2.94574e+06         8.67042e+07
    9.03              127777             201.252        -2.93215e+06         8.63504e+07
    9.05              127130             200.503        -2.91859e+06         8.59976e+07
    9.07              126485             199.756        -2.90506e+06         8.56458e+07
    9.09              125843             199.012        -2.89158e+06         8.52949e+07
    9.11              125202              198.27        -2.87813e+06         8.49451e+07
    9.13              124563              197.53        -2.86472e+06         8.45962e+07
    9.15              123926             196.793        -2.85136e+06         8.42484e+07
    9.17              123290             196.058        -2.83802e+06         8.39016e+07
    9.19              122657             195.326        -2.82473e+06         8.35559e+07
    9.21              122026             194.596        -2.81148e+06         8.32112e+07
    9.23              121397             193.869        -2.79827e+06         8.28675e+07
    9.25              120770             193.144         -2.7851e+06         8.25249e+07
    9.27              120144             192.421        -2.77197e+06         8.21834e+07
    9.29              119521             191.701        -2.75888e+06          8.1843e+07
    9.31              118900             190.983        -2.74584e+06         8.15037e+07
    9.33              118281             190.268        -2.73283e+06         8.11655e+07
    9.35              117664             189.555        -2.71987e+06         8.08284e+07
    9.37              117049             188.844        -2.70695e+06         8.04925e+07
    9.39              116436             188.136        -2.69408e+06         8.01576e+07
    9.41              115826              187.43        -2.68125e+06         7.98239e+07
    9.43              115217             186.727        -2.66846e+06         7.94914e+07
    9.45              114611             186.026        -2.65572e+06           7.916e+07
    9.47              114006             185.327        -2.64302e+06         7.88298e+07
    9.49              113404             184.631        -2.63036e+06         7.85008e+07
    9.51              112804             183.937        -2.61775e+06         7.81729e+07
    9.53              112206             183.246        -2.60519e+06         7.78463e+07
    9.55              111610             182.557        -2.59267e+06         7.75208e+07
    9.57              111017              181.87         -2.5802e+06         7.71966e+07
    9.59              110426             181.186        -2.56777e+06         7.68736e+07
    9.61              109837             180.504         -2.5554e+06         7.65518e+07
    9.63              109250             179.824        -2.54306e+06         7.62313e+07
    9.65              108666             179.147        -2.53078e+06          7.5912e+07
    9.67              108083             178.472        -2.51854e+06         7.55939e+07
    9.69              107503               177.8        -2.50636e+06         7.52771e+07
    9.71              106926              177.13        -2.49422e+06         7.49616e+07
    9.73              106350             176.462        -2.48212e+06         7.46474e+07
    9.75              105777             175.796        -2.47008e+06         7.43344e+07
    9.77              105206             175.133        -2.45809e+06         7.40227e+07
    9.79              104638             174.473        -2.44615e+06         7.37123e+07
    9.81              104072             173.814        -2.43425e+06         7.34033e+07
    9.83              103508             173.158        -2.42241e+06         7.30955e+07
    9.85              102947             172.504        -2.41061e+06         7.27891e+07
    9.87              102388             171.853        -2.39887e+06          7.2484e+07
    9.89              101831             171.204        -2.38718e+06         7.21802e+07
    9.91              101277             170.557        -2.37554e+06         7.18777e+07
    9.93              100725             169.913        -2.36395e+06         7.15766e+07
    9.95              100175              169.27        -2.35241e+06         7.12769e+07
    9.97             99628.2             168.631        -2.34092e+06         7.09785e+07
    9.99             99083.6             167.993        -2.32949e+06         7.06815e+07
   10.01             98541.4             167.358        -2.31811e+06         7.03858e+07
   10.03             98001.6             166.725        -2.30678e+06         7.00916e+07
   10.05             97464.3             166.094         -2.2955e+06         6.97987e+07
   10.07             96929.4             165.466        -2.28428e+06         6.95072e+07
   10.09             96397.1              164.84        -2.27311e+06         6.92171e+07
   10.11             95867.1             164.216        -2.26199e+06         6.89284e+07
   10.13             95339.7             163.594        -2.25093e+06         6.86411e+07
   10.15             94814.8             162.975        -2.23992e+06         6.83552e+07
   10.17             94292.3             162.358        -2.22896e+06         6.80707e+07
   10.19             93772.4             161.744        -2.21806e+06         6.77877e+07
   10.21               93255             161.131        -2.20722e+06         6.75061e+07
   10.23             92740.1             160.521        -2.19642e+06         6.72259e+07
   10.25             92227.7             159.913        -2.18569e+06         6.69471e+07
   10.27             91717.9             159.307        -2.17501e+06         6.66698e+07
   10.29             91210.6             158.704        -2.16438e+06          6.6394e+07
   10.31             90705.8             158.102        -2.15381e+06         6.61196e+07
   10.33             90203.6             157.503        -2.14329e+06         6.58466e+07
   10.35               89704             156.907        -2.13283e+06         6.55751e+07
   10.37             89206.9             156.312        -2.12243e+06         6.53051e+07
   10.39             88712.4              155.72        -2.11208e+06         6.50366e+07
   10.41             88220.5             155.129        -2.10179e+06         6.47695e+07
   10.43             87731.2             154.542        -2.09156e+06         6.45039e+07
   10.45             87244.5             153.956        -2.08138e+06         6.42398e+07
   10.47             86760.4             153.372        -2.07126e+06         6.39771e+07
   10.49             86278.8             152.791        -2.06119e+06          6.3716e+07
   10.51             85799.9             152.212        -2.05119e+06         6.34563e+07
   10.53             85323.6             151.635        -2.04124e+06         6.31982e+07
   10.55             84849.9              151.06        -2.03134e+06         6.29415e+07
   10.57             84378.8             150.487        -2.02151e+06         6.26863e+07
   10.59             83910.4             149.917        -2.01173e+06         6.24327e+07
   10.61             83444.6             149.349        -2.00201e+06         6.21805e+07
   10.63             82981.4             148.782        -1.99235e+06         6.19299e+07
   10.65             82520.9             148.218        -1.98274e+06         6.16808e+07
   10.67               82063             147.657         -1.9732e+06         6.14331e+07
   10.69             81607.7             147.097        -1.96371e+06          6.1187e+07
   10.71             81155.1             146.539        -1.95428e+06         6.09425e+07
   10.73             80705.2             145.984         -1.9449e+06         6.06994e+07
   10.75             80257.9             145.431        -1.93559e+06         6.04579e+07
   10.77             79813.3             144.879        -1.92634e+06         6.02179e+07
   10.79             79371.4              144.33        -1.91714e+06         5.99794e+07
   10.81             78932.1             143.783          -1.908e+06         5.97425e+07
   10.83             78495.4             143.239        -1.89892e+06         5.95071e+07
   10.85             78061.5             142.696         -1.8899e+06         5.92732e+07
   10.87             77630.2             142.155        -1.88094e+06         5.90408e+07
   10.89             77201.6             141.617        -1.87203e+06           5.881e+07
   10.91             76775.7              141.08        -1.86319e+06         5.85807e+07
   10.93             76352.5             140.546        -1.85441e+06          5.8353e+07
   10.95             75931.9             140.014        -1.84568e+06         5.81268e+07
   10.97               75514             139.484        -1.83701e+06         5.79022e+07
   10.99             75098.9             138.956         -1.8284e+06          5.7679e+07
   11.01             74686.4              138.43        -1.81985e+06         5.74575e+07
   11.03             74276.6             137.906        -1.81136e+06         5.72374e+07
   11.05             73869.4             137.384        -1.80293e+06         5.70189e+07
   11.07               73465             136.864        -1.79456e+06          5.6802e+07
   11.09             73063.3             136.346        -1.78625e+06         5.65866e+07
   11.11             72664.2              135.83          -1.778e+06         5.63727e+07
   11.13             72267.8             135.317         -1.7698e+06         5.61604e+07
   11.15             71874.2             134.805        -1.76167e+06         5.59496e+07
   11.17             71483.2             134.295        -1.75359e+06         5.57404e+07
   11.19             71094.9             133.788        -1.74557e+06         5.55327e+07
   11.21             70709.3             133.282        -1.73762e+06         5.53265e+07
   11.23             70326.4             132.779        -1.72972e+06         5.51219e+07
   11.25             69946.2             132.277        -1.72188e+06         5.49189e+07
   11.27             69568.7             131.778         -1.7141e+06         5.47173e+07
   11.29             69193.8              131.28        -1.70638e+06         5.45173e+07
   11.31             68821.7             130.785        -1.69872e+06         5.43189e+07
   11.33             68452.2             130.292        -1.69112e+06         5.41219e+07
   11.35             68085.4               129.8        -1.68357e+06         5.39266e+07
   11.37             67721.3             129.311        -1.67609e+06         5.37327e+07
   11.39             67359.9             128.823        -1.66866e+06         5.35404e+07
   11.41             67001.2             128.338        -1.66129e+06         5.33496e+07
   11.43             66645.1             127.855        -1.65399e+06         5.31603e+07
   11.45             66291.8             127.373        -1.64674e+06         5.29726e+07
   11.47             65941.1             126.894        -1.63955e+06         5.27863e+07
   11.49               65593             126.416        -1.63241e+06         5.26017e+07
   11.51             65247.7             125.941        -1.62534e+06         5.24185e+07
   11.53               64905             125.467        -1.61833e+06         5.22368e+07
   11.55             64564.9             124.996        -1.61137e+06         5.20567e+07
   11.57             64227.5             124.526        -1.60447e+06         5.18781e+07
   11.59             63892.8             124.059        -1.59763e+06         5.17009e+07
   11.61             63560.8             123.593        -1.59085e+06         5.15253e+07
   11.63             63231.3              123.13        -1.58413e+06         5.13512e+07
   11.65             62904.6             122.668        -1.57746e+06         5.11786e+07
   11.67             62580.5             122.208        -1.57085e+06         5.10075e+07
   11.69               62259             121.751         -1.5643e+06         5.08379e+07
   11.71             61940.1             121.295        -1.55781e+06         5.06698e+07
   11.73             61623.9             120.841        -1.55137e+06         5.05032e+07
   11.75             61310.3             120.389          -1.545e+06         5.03381e+07
   11.77             60999.4              119.94        -1.53868e+06         5.01744e+07
   11.79               60691             119.492        -1.53241e+06         5.00122e+07
   11.81             60385.3             119.046        -1.52621e+06         4.98515e+07
   11.83             60082.2             118.602        -1.52006e+06         4.96923e+07
   11.85             59781.7              118.16        -1.51396e+06         4.95346e+07
   11.87             59483.7              117.72        -1.50793e+06         4.93783e+07
   11.89             59188.4             117.282        -1.50195e+06         4.92235e+07
   11.91             58895.7             116.846        -1.49603e+06         4.90701e+07
   11.93             58605.5             116.412        -1.49016e+06         4.89182e+07
   11.95               58318              115.98        -1.48435e+06         4.87677e+07
   11.97               58033              115.55        -1.47859e+06         4.86187e+07
   11.99             57750.6             115.122        -1.47289e+06         4.84711e+07
   12.01             57470.7             114.696        -1.46725e+06         4.83249e+07
   12.03             57193.4             114.271        -1.46166e+06         4.81802e+07
   12.05             56918.6             113.849        -1.45613e+06         4.80369e+07
   12.07             56646.4             113.429        -1.45065e+06          4.7895e+07
   12.09             56376.7             113.011        -1.44523e+06         4.77546e+07
   12.11             56109.5             112.594        -1.43986e+06         4.76155e+07
   12.13             55844.9              112.18        -1.43455e+06         4.74779e+07
   12.15             55582.8             111.768        -1.42929e+06         4.73416e+07
   12.17             55323.2             111.358        -1.42408e+06         4.72068e+07
   12.19             55066.1             110.949        -1.41893e+06         4.70733e+07
   12.21             54811.5             110.543        -1.41384e+06         4.69413e+07
   12.23             54559.3             110.139        -1.40879e+06         4.68106e+07
   12.25             54309.7             109.737         -1.4038e+06         4.66813e+07
   12.27             54062.5             109.336        -1.39887e+06         4.65533e+07
   12.29             53817.8             108.938        -1.39398e+06         4.64267e+07
   12.31             53575.6             108.542        -1.38915e+06         4.63015e+07
   12.33             53335.8             108.148        -1.38437e+06         4.61776e+07
   12.35             53098.4             107.756        -1.37965e+06         4.60551e+07
   12.37             52863.5             107.366        -1.37497e+06         4.59339e+07
   12.39               52631             106.978        -1.37035e+06          4.5814e+07
   12.41             52400.9             106.592        -1.36578e+06         4.56955e+07
   12.43             52173.3             106.208        -1.36126e+06         4.55783e+07
   12.45               51948             105.826         -1.3568e+06         4.54624e+07
   12.47             51725.1             105.446        -1.35238e+06         4.53478e+07
   12.49             51504.6             105.068        -1.34801e+06         4.52345e+07
   12.51             51286.5             104.693         -1.3437e+06         4.51225e+07
   12.53             51070.8             104.319        -1.33944e+06         4.50118e+07
   12.55             50857.4             103.948        -1.33522e+06         4.49024e+07
   12.57             50646.4             103.578        -1.33106e+06         4.47943e+07
   12.59             50437.6             103.211        -1.32694e+06         4.46874e+07
   12.61             50231.3             102.846        -1.32288e+06         4.45818e+07
   12.63             50027.2             102.483        -1.31886e+06         4.44774e+07
   12.65             49825.5             102.122        -1.31489e+06         4.43743e+07
   12.67             49626.1             101.763        -1.31098e+06         4.42725e+07
   12.69             49428.9             101.407        -1.30711e+06         4.41719e+07
   12.71               49234             101.052        -1.30328e+06         4.40725e+07
   12.73             49041.5               100.7        -1.29951e+06         4.39743e+07
   12.75             48851.1              100.35        -1.29579e+06         4.38773e+07
   12.77             48663.1             100.002        -1.29211e+06         4.37816e+07
   12.79             48477.2             99.6563        -1.28848e+06          4.3687e+07
   12.81             48293.6             99.3127        -1.28489e+06         4.35937e+07
   12.83             48112.3             98.9714        -1.28135e+06         4.35015e+07
   12.85             47933.1             98.6323        -1.27786e+06         4.34105e+07
   12.87             47756.1             98.2954        -1.27442e+06         4.33207e+07
   12.89             47581.4             97.9608        -1.27102e+06         4.32321e+07
   12.91             47408.8             97.6284        -1.26766e+06         4.31446e+07
   12.93             47238.4             97.2982        -1.26435e+06         4.30582e+07
   12.95             47070.1             96.9703        -1.26109e+06          4.2973e+07
   12.97               46904             96.6447        -1.25787e+06         4.28889e+07
   12.99             46740.1             96.3214         -1.2547e+06          4.2806e+07
   13.01             46578.3             96.0003        -1.25157e+06         4.27241e+07
   13.03             46418.5             95.6816        -1.24848e+06         4.26434e+07
   13.05             46260.9             95.3652        -1.24544e+06         4.25638e+07
   13.07             46105.4             95.0511        -1.24244e+06         4.24853e+07
   13.09               45952             94.7393        -1.23948e+06         4.24079e+07
   13.11             45800.7             94.4299        -1.23657e+06         4.23315e+07
   13.13             45651.4             94.1228         -1.2337e+06         4.22562e+07
   13.15             45504.1             93.8181        -1.23087e+06          4.2182e+07
   13.17             45358.9             93.5157        -1.22808e+06         4.21089e+07
   13.19             45215.8             93.2158        -1.22533e+06         4.20367e+07
   13.21             45074.6             92.9182        -1.22263e+06         4.19657e+07
   13.23             44935.5              92.623        -1.21997e+06         4.18956e+07
   13.25             44798.3             92.3303        -1.21734e+06         4.18266e+07
   13.27             44663.2               92.04        -1.21476e+06         4.17586e+07
   13.29               44530             91.7521        -1.21222e+06         4.16917e+07
   13.31             44398.7             91.4666        -1.20972e+06         4.16257e+07
   13.33             44269.5             91.1836        -1.20726e+06         4.15607e+07
   13.35             44142.1             90.9031        -1.20483e+06         4.14967e+07
   13.37             44016.7              90.625        -1.20245e+06         4.14337e+07
   13.39             43893.2             90.3495         -1.2001e+06         4.13716e+07
   13.41             43771.6             90.0764         -1.1978e+06         4.13105e+07
   13.43             43651.8             89.8058        -1.19553e+06         4.12504e+07
   13.45               43534             89.5377         -1.1933e+06         4.11912e+07
   13.47               43418             89.2722         -1.1911e+06         4.11329e+07
   13.49             43303.9             89.0091        -1.18895e+06         4.10756e+07
   13.51             43191.6             88.7486        -1.18683e+06         4.10191e+07
   13.53             43081.2             88.4907        -1.18474e+06         4.09636e+07
   13.55             42972.5             88.2353         -1.1827e+06          4.0909e+07
   13.57             42865.7             87.9825        -1.18068e+06         4.08553e+07
   13.59             42760.7             87.7322        -1.17871e+06         4.08025e+07
   13.61             42657.4             87.4846        -1.17677e+06         4.07506e+07
   13.63             42555.9             87.2395        -1.17486e+06         4.06995e+07
   13.65             42456.2              86.997        -1.17299e+06         4.06493e+07
   13.67             42358.2             86.7571        -1.17116e+06         4.05999e+07
   13.69               42262             86.5199        -1.16936e+06         4.05514e+07
   13.71             42167.4             86.2852        -1.16759e+06         4.05038e+07
   13.73             42074.6             86.0532        -1.16585e+06         4.04569e+07
   13.75             41983.5             85.8238        -1.16415e+06         4.04109e+07
   13.77               41894             85.5971        -1.16249e+06         4.03657e+07
   13.79             41806.2              85.373        -1.16085e+06         4.03213e+07
   13.81             41720.1             85.1515        -1.15925e+06         4.02777e+07
   13.83             41635.7             84.9327        -1.15768e+06         4.02349e+07
   13.85             41552.8             84.7166        -1.15614e+06         4.01929e+07
   13.87             41471.6             84.5031        -1.15463e+06         4.01517e+07
   13.89               41392             84.2923        -1.15315e+06         4.01112e+07
   13.91               41314             84.0842         -1.1517e+06         4.00715e+07
   13.93             41237.5             83.8788        -1.15029e+06         4.00325e+07
   13.95             41162.7             83.6761         -1.1489e+06         3.99942e+07
   13.97             41089.4              83.476        -1.14755e+06         3.99567e+07
   13.99             41017.6             83.2786        -1.14622e+06           3.992e+07
   14.01             40947.4              83.084        -1.14493e+06         3.98839e+07
   14.03             40878.7              82.892        -1.14366e+06         3.98485e+07
   14.05             40811.5             82.7028        -1.14242e+06         3.98139e+07
   14.07             40745.8             82.5162        -1.14121e+06         3.97799e+07
   14.09             40681.6             82.3324        -1.14003e+06         3.97466e+07
   14.11             40618.9             82.1512        -1.13887e+06         3.97141e+07
   14.13             40557.6             81.9728        -1.13774e+06         3.96821e+07
   14.15             40497.8             81.7971        -1.13664e+06         3.96509e+07
   14.17             40439.4             81.6241        -1.13557e+06         3.96202e+07
   14.19             40382.4             81.4538        -1.13452e+06         3.95903e+07
   14.21             40326.8             81.2862         -1.1335e+06         3.95609e+07
   14.23             40272.7             81.1214        -1.13251e+06         3.95322e+07
   14.25             40219.9             80.9592        -1.13154e+06         3.95042e+07
   14.27             40168.5             80.7997         -1.1306e+06         3.94767e+07
   14.29             40118.4              80.643        -1.12968e+06         3.94499e+07
   14.31             40069.7              80.489        -1.12879e+06         3.94236e+07
   14.33             40022.3             80.3376        -1.12792e+06         3.93979e+07
   14.35             39976.3              80.189        -1.12708e+06         3.93729e+07
   14.37             39931.6              80.043        -1.12626e+06         3.93483e+07
   14.39             39888.1             79.8998        -1.12546e+06         3.93244e+07
   14.41               39846             79.7592        -1.12469e+06          3.9301e+07
   14.43             39805.1             79.6214        -1.12394e+06         3.92782e+07
   14.45             39765.5             79.4862        -1.12321e+06          3.9256e+07
   14.47             39727.1             79.3537        -1.12251e+06         3.92342e+07
   14.49               39690             79.2238        -1.12182e+06          3.9213e+07
   14.51             39654.1             79.0967        -1.12116e+06         3.91923e+07
   14.53             39619.4             78.9721        -1.12053e+06         3.91722e+07
   14.55             39585.9             78.8503        -1.11991e+06         3.91525e+07
   14.57             39553.7             78.7311        -1.11931e+06         3.91334e+07
   14.59             39522.5             78.6145        -1.11874e+06         3.91147e+07
   14.61             39492.6             78.5005        -1.11818e+06         3.90966e+07
   14.63             39463.8             78.3892        -1.11765e+06         3.90789e+07
   14.65             39436.1             78.2805        -1.11714e+06         3.90617e+07
   14.67             39409.6             78.1744        -1.11664e+06         3.90449e+07
   14.69             39384.2             78.0709        -1.11617e+06         3.90287e+07
   14.71             39359.9               77.97        -1.11571e+06         3.90128e+07
   14.73             39336.7             77.8716        -1.11528e+06         3.89975e+07
   14.75             39314.5             77.7759        -1.11486e+06         3.89825e+07
   14.77             39293.5             77.6827        -1.11446e+06          3.8968e+07
   14.79             39273.5              77.592        -1.11408e+06         3.89539e+07
   14.81             39254.5             77.5039        -1.11372e+06         3.89403e+07
   14.83             39236.6             77.4183        -1.11337e+06          3.8927e+07
   14.85             39219.7             77.3352        -1.11305e+06         3.89142e+07
   14.87             39203.8             77.2546        -1.11274e+06         3.89017e+07
   14.89             39188.9             77.1765        -1.11244e+06         3.88897e+07
   14.91               39175             77.1009        -1.11217e+06          3.8878e+07
   14.93             39162.1             77.0277        -1.11191e+06         3.88667e+07
   14.95             39150.2              76.957        -1.11166e+06         3.88558e+07
   14.97             39139.2             76.8887        -1.11143e+06         3.88453e+07
   14.99             39129.1             76.8229        -1.11122e+06         3.88351e+07
   15.01               39120             76.7594        -1.11103e+06         3.88253e+07
   15.03             39111.8             76.6984        -1.11084e+06         3.88158e+07
   15.05             39104.5             76.6397        -1.11068e+06         3.88066e+07
   15.07             39098.1             76.5834        -1.11053e+06         3.87978e+07
   15.09             39092.6             76.5294        -1.11039e+06         3.87894e+07
   15.11               39088             76.4778        -1.11027e+06         3.87812e+07
   15.13             39084.3             76.4285        -1.11016e+06         3.87734e+07
   15.15             39081.4             76.3815        -1.11006e+06         3.87659e+07
   15.17             39079.3             76.3367        -1.10998e+06         3.87587e+07
   15.19             39078.1             76.2943        -1.10991e+06         3.87517e+07
   15.21             39077.7             76.2541        -1.10986e+06         3.87451e+07
   15.23             39078.1             76.2161        -1.10981e+06         3.87388e+07
   15.25             39079.3             76.1803        -1.10978e+06         3.87328e+07
   15.27             39081.3             76.1467        -1.10977e+06          3.8727e+07
   15.29             39084.1             76.1153        -1.10976e+06         3.87215e+07
   15.31             39087.6             76.0861        -1.10977e+06         3.87163e+07
   15.33             39091.9              76.059        -1.10979e+06         3.87113e+07
   15.35               39097              76.034        -1.10982e+06         3.87066e+07
   15.37             39102.8             76.0111        -1.10986e+06         3.87021e+07
   15.39             39109.3             75.9903        -1.10991e+06         3.86979e+07
   15.41             39116.5             75.9716        -1.10998e+06         3.86939e+07
   15.43             39124.5             75.9549        -1.11005e+06         3.86902e+07
   15.45             39133.1             75.9403        -1.11014e+06         3.86867e+07
   15.47             39142.4             75.9276        -1.11023e+06         3.86834e+07
   15.49             39152.4              75.917        -1.11034e+06         3.86803e+07
   15.51             39163.1             75.9083        -1.11045e+06         3.86775e+07
   15.53             39174.5             75.9015        -1.11058e+06         3.86748e+07
   15.55             39186.4             75.8967        -1.11071e+06         3.86724e+07
   15.57             39199.1             75.8938        -1.11086e+06         3.86702e+07
   15.59             39212.3             75.8928        -1.11101e+06         3.86681e+07
   15.61             39226.2             75.8936        -1.11117e+06         3.86663e+07
   15.63             39240.6             75.8963        -1.11135e+06         3.86646e+07
   15.65             39255.7             75.9008        -1.11153e+06         3.86631e+07
   15.67             39271.4             75.9071        -1.11171e+06         3.86618e+07
   15.69             39287.6             75.9151        -1.11191e+06         3.86607e+07
   15.71             39304.4              75.925        -1.11211e+06         3.86597e+07
   15.73             39321.8             75.9365        -1.11233e+06         3.86589e+07
   15.75             39339.7             75.9498        -1.11255e+06         3.86582e+07
   15.77             39358.2             75.9648        -1.11277e+06         3.86577e+07
   15.79             39377.2             75.9814        -1.11301e+06         3.86574e+07
   15.81             39396.7             75.9997        -1.11325e+06         3.86572e+07
   15.83             39416.7             76.0197         -1.1135e+06         3.86571e+07
   15.85             39437.3             76.0412        -1.11375e+06         3.86572e+07
   15.87             39458.3             76.0643        -1.11402e+06         3.86575e+07
   15.89             39479.9              76.089        -1.11428e+06         3.86578e+07
   15.91             39501.9             76.1152        -1.11456e+06         3.86583e+07
   15.93             39524.4             76.1429        -1.11484e+06         3.86589e+07
   15.95             39547.3             76.1721        -1.11513e+06         3.86596e+07
   15.97             39570.7             76.2028        -1.11542e+06         3.86604e+07
   15.99             39594.6              76.235        -1.11572e+06         3.86614e+07
   16.01             39618.8             76.2685        -1.11602e+06         3.86624e+07
   16.03             39643.6             76.3035        -1.11633e+06         3.86636e+07
   16.05             39668.7             76.3398        -1.11665e+06         3.86648e+07
   16.07             39694.2             76.3776        -1.11697e+06         3.86661e+07
   16.09             39720.2             76.4166        -1.11729e+06         3.86676e+07
   16.11             39746.5              76.457        -1.11762e+06         3.86691e+07
   16.13             39773.3             76.4987        -1.11796e+06         3.86707e+07
   16.15             39800.4             76.5416         -1.1183e+06         3.86724e+07
   16.17             39827.9             76.5858        -1.11864e+06         3.86742e+07
   16.19             39855.7             76.6312        -1.11899e+06         3.86761e+07
   16.21             39883.9             76.6778        -1.11934e+06          3.8678e+07
   16.23             39912.5             76.7256        -1.11969e+06           3.868e+07
   16.25             39941.4             76.7746        -1.12005e+06         3.86821e+07
   16.27             39970.6             76.8247        -1.12042e+06         3.86842e+07
   16.29             40000.2             76.8759        -1.12078e+06         3.86864e+07
   16.31               40030             76.9282        -1.12115e+06         3.86886e+07
   16.33             40060.2             76.9816        -1.12153e+06         3.86909e+07
   16.35             40090.7              77.036         -1.1219e+06         3.86933e+07
   16.37             40121.5             77.0914        -1.12228e+06         3.86957e+07
   16.39             40152.6             77.1479        -1.12267e+06         3.86982e+07
   16.41             40183.9             77.2054        -1.12305e+06         3.87007e+07
   16.43             40215.5             77.2638        -1.12344e+06         3.87032e+07
   16.45             40247.4             77.3231        -1.12383e+06         3.87058e+07
   16.47             40279.6             77.3834        -1.12422e+06         3.87084e+07
   16.49               40312             77.4446        -1.12462e+06         3.87111e+07
   16.51             40344.6             77.5067        -1.12502e+06         3.87137e+07
   16.53             40377.5             77.5696        -1.12542e+06         3.87165e+07
   16.55             40410.6             77.6333        -1.12582e+06         3.87192e+07
   16.57               40444             77.6979        -1.12622e+06          3.8722e+07
   16.59             40477.6             77.7632        -1.12663e+06         3.87247e+07
   16.61             40511.3             77.8294        -1.12704e+06         3.87275e+07
   16.63             40545.3             77.8963        -1.12745e+06         3.87304e+07
   16.65             40579.5             77.9639        -1.12786e+06         3.87332e+07
   16.67             40613.9             78.0322        -1.12827e+06         3.87361e+07
   16.69             40648.5             78.1012        -1.12869e+06         3.87389e+07
   16.71             40683.2             78.1709         -1.1291e+06         3.87418e+07
   16.73             40718.1             78.2413        -1.12952e+06         3.87447e+07
   16.75             40753.2             78.3122        -1.12993e+06         3.87476e+07
   16.77             40788.5             78.3838        -1.13035e+06         3.87504e+07
   16.79             40823.9              78.456        -1.13077e+06         3.87533e+07
   16.81             40859.4             78.5288        -1.13119e+06         3.87562e+07
   16.83             40895.1             78.6021        -1.13161e+06         3.87591e+07
   16.85               40931             78.6759        -1.13203e+06          3.8762e+07
   16.87             40966.9             78.7503        -1.13246e+06         3.87649e+07
   16.89               41003             78.8251        -1.13288e+06         3.87677e+07
   16.91             41039.2             78.9005         -1.1333e+06         3.87706e+07
   16.93             41075.6             78.9762        -1.13372e+06         3.87734e+07
   16.95               41112             79.0525        -1.13415e+06         3.87763e+07
   16.97             41148.5             79.1291        -1.13457e+06         3.87791e+07
   16.99             41185.2             79.2062        -1.13499e+06         3.87819e+07
   17.01             41221.9             79.2836        -1.13542e+06         3.87847e+07
   17.03             41258.7             79.3614        -1.13584e+06         3.87874e+07
   17.05             41295.6             79.4396        -1.13626e+06         3.87902e+07
   17.07             41332.6              79.518        -1.13669e+06         3.87929e+07
   17.09             41369.7             79.5968        -1.13711e+06         3.87956e+07
   17.11             41406.8             79.6759        -1.13753e+06         3.87983e+07
   17.13               41444             79.7553        -1.13795e+06         3.88009e+07
   17.15             41481.2              79.835        -1.13837e+06         3.88036e+07
   17.17             41518.5             79.9148         -1.1388e+06         3.88062e+07
   17.19             41555.8              79.995        -1.13922e+06         3.88087e+07
   17.21             41593.2             80.0753        -1.13964e+06         3.88113e+07
   17.23             41630.6             80.1558        -1.14005e+06         3.88138e+07
   17.25               41668             80.2365        -1.14047e+06         3.88163e+07
   17.27             41705.5             80.3174        -1.14089e+06         3.88187e+07
   17.29             41742.9             80.3984        -1.14131e+06         3.88211e+07
   17.31             41780.4             80.4796        -1.14172e+06         3.88235e+07
   17.33               41818             80.5608        -1.14213e+06         3.88258e+07
   17.35             41855.5             80.6422        -1.14255e+06         3.88281e+07
   17.37               41893             80.7237        -1.14296e+06         3.88303e+07
   17.39             41930.5             80.8052        -1.14337e+06         3.88325e+07
   17.41               41968             80.8868        -1.14378e+06         3.88347e+07
   17.43             42005.5             80.9685        -1.14419e+06         3.88368e+07
   17.45               42043             81.0501        -1.14459e+06         3.88389e+07
   17.47             42080.5             81.1318          -1.145e+06          3.8841e+07
   17.49             42117.9             81.2135         -1.1454e+06         3.88429e+07
   17.51             42155.4             81.2952        -1.14581e+06         3.88449e+07
   17.53             42192.8             81.3768        -1.14621e+06         3.88468e+07
   17.55             42230.1             81.4584         -1.1466e+06         3.88486e+07
   17.57             42267.4               81.54          -1.147e+06         3.88504e+07
   17.59             42304.7             81.6215         -1.1474e+06         3.88522e+07
   17.61             42341.9             81.7029        -1.14779e+06         3.88539e+07
   17.63             42379.1             81.7842        -1.14818e+06         3.88556e+07
   17.65             42416.2             81.8654        -1.14857e+06         3.88572e+07
   17.67             42453.2             81.9465        -1.14896e+06         3.88587e+07
   17.69             42490.2             82.0275        -1.14935e+06         3.88602e+07
   17.71             42527.1             82.1083        -1.14973e+06         3.88617e+07
   17.73               42564              82.189        -1.15011e+06          3.8863e+07
   17.75             42600.7             82.2695        -1.15049e+06         3.88644e+07
   17.77             42637.4             82.3498        -1.15087e+06         3.88657e+07
   17.79               42674               82.43        -1.15125e+06         3.88669e+07
   17.81             42710.6             82.5099        -1.15162e+06          3.8868e+07
   17.83               42747             82.5897        -1.15199e+06         3.88692e+07
   17.85             42783.3             82.6692        -1.15236e+06         3.88702e+07
   17.87             42819.6             82.7485        -1.15273e+06         3.88712e+07
   17.89             42855.7             82.8275        -1.15309e+06         3.88721e+07
   17.91             42891.8             82.9063        -1.15346e+06          3.8873e+07
   17.93             42927.7             82.9849        -1.15382e+06         3.88738e+07
   17.95             42963.5             83.0631        -1.15417e+06         3.88746e+07
   17.97             42999.2             83.1411        -1.15453e+06         3.88753e+07
   17.99             43034.8             83.2188        -1.15488e+06         3.88759e+07
   18.01             43070.3             83.2962        -1.15523e+06         3.88764e+07
   18.03             43105.6             83.3733        -1.15558e+06         3.88769e+07
   18.05             43140.8             83.4501        -1.15592e+06         3.88774e+07
   18.07             43175.9             83.5266        -1.15626e+06         3.88778e+07
   18.09             43210.9             83.6027         -1.1566e+06         3.88781e+07
   18.11             43245.7             83.6785        -1.15694e+06         3.88783e+07
   18.13             43280.3             83.7539        -1.15727e+06         3.88785e+07
   18.15             43314.9              83.829         -1.1576e+06         3.88786e+07
   18.17             43349.3             83.9037        -1.15793e+06         3.88787e+07
   18.19             43383.5              83.978        -1.15826e+06         3.88786e+07
   18.21             43417.6             84.0519        -1.15858e+06         3.88786e+07
   18.23             43451.5             84.1255         -1.1589e+06         3.88784e+07
   18.25             43485.3             84.1986        -1.15921e+06         3.88782e+07
   18.27             43518.9             84.2714        -1.15953e+06         3.88779e+07
   18.29             43552.3             84.3437        -1.15984e+06         3.88775e+07
   18.31             43585.6             84.4157        -1.16014e+06         3.88771e+07
   18.33             43618.7             84.4872        -1.16045e+06         3.88766e+07
   18.35             43651.6             84.5583        -1.16075e+06          3.8876e+07
   18.37             43684.4             84.6289        -1.16105e+06         3.88754e+07
   18.39               43717             84.6991        -1.16134e+06         3.88747e+07
   18.41             43749.4             84.7689        -1.16163e+06         3.88739e+07
   18.43             43781.6             84.8381        -1.16192e+06         3.88731e+07
   18.45             43813.6              84.907         -1.1622e+06         3.88721e+07
   18.47             43845.5             84.9754        -1.16248e+06         3.88711e+07
   18.49             43877.1             85.0433        -1.16276e+06         3.88701e+07
   18.51             43908.6             85.1107        -1.16304e+06         3.88689e+07
   18.53             43939.8             85.1777        -1.16331e+06         3.88677e+07
   18.55             43970.9             85.2441        -1.16358e+06         3.88664e+07
   18.57             44001.7             85.3101        -1.16384e+06          3.8865e+07
   18.59             44032.4             85.3756         -1.1641e+06         3.88636e+07
   18.61             44062.8             85.4406        -1.16436e+06         3.88621e+07
   18.63             44093.1             85.5051        -1.16461e+06         3.88605e+07
   18.65             44123.1             85.5691        -1.16486e+06         3.88588e+07
   18.67             44152.9             85.6325        -1.16511e+06          3.8857e+07
   18.69             44182.5             85.6955        -1.16535e+06         3.88552e+07
   18.71             44211.8              85.758        -1.16559e+06         3.88533e+07
   18.73               44241             85.8199        -1.16582e+06         3.88513e+07
   18.75             44269.9             85.8813        -1.16605e+06         3.88492e+07
   18.77             44298.6             85.9422        -1.16628e+06         3.88471e+07
   18.79             44327.1             86.0025        -1.16651e+06         3.88449e+07
   18.81             44355.3             86.0624        -1.16673e+06         3.88426e+07
   18.83             44383.3             86.1216        -1.16694e+06         3.88402e+07
   18.85               44411             86.1804        -1.16715e+06         3.88377e+07
   18.87             44438.6             86.2386        -1.16736e+06         3.88351e+07
   18.89             44465.8             86.2963        -1.16757e+06         3.88325e+07
   18.91             44492.9             86.3534        -1.16777e+06         3.88298e+07
   18.93             44519.7               86.41        -1.16796e+06          3.8827e+07
   18.95             44546.2              86.466        -1.16815e+06         3.88241e+07
   18.97             44572.5             86.5215        -1.16834e+06         3.88211e+07
   18.99             44598.5             86.5765        -1.16852e+06          3.8818e+07
   19.01             44624.3             86.6309         -1.1687e+06         3.88149e+07
   19.03             44649.8             86.6847        -1.16888e+06         3.88117e+07
   19.05             44675.1              86.738        -1.16905e+06         3.88083e+07
   19.07             44700.1             86.7907        -1.16922e+06         3.88049e+07
   19.09             44724.8             86.8429        -1.16938e+06         3.88014e+07
   19.11             44749.3             86.8945        -1.16953e+06         3.87978e+07
   19.13             44773.5             86.9455        -1.16969e+06         3.87941e+07
   19.15             44797.4              86.996        -1.16984e+06         3.87904e+07
   19.17             44821.1              87.046        -1.16998e+06         3.87865e+07
   19.19             44844.5             87.0954        -1.17012e+06         3.87826e+07
   19.21             44867.6             87.1442        -1.17026e+06         3.87785e+07
   19.23             44890.4             87.1925        -1.17039e+06         3.87744e+07
   19.25               44913             87.2402        -1.17051e+06         3.87701e+07
   19.27             44935.2             87.2873        -1.17063e+06         3.87658e+07
   19.29             44957.2             87.3339        -1.17075e+06         3.87614e+07
   19.31             44978.9               87.38        -1.17086e+06         3.87569e+07
   19.33             45000.3             87.4254        -1.17097e+06         3.87522e+07
   19.35             45021.4             87.4704        -1.17107e+06         3.87475e+07
   19.37             45042.2             87.5147        -1.17117e+06         3.87427e+07
   19.39             45062.7             87.5585        -1.17126e+06         3.87378e+07
   19.41             45082.9             87.6018        -1.17135e+06         3.87328e+07
   19.43             45102.8             87.6445        -1.17143e+06         3.87276e+07
   19.45             45122.4             87.6866        -1.17151e+06         3.87224e+07
   19.47             45141.7             87.7282        -1.17158e+06         3.87171e+07
   19.49             45160.7             87.7693        -1.17165e+06         3.87117e+07
   19.51             45179.4             87.8098        -1.17171e+06         3.87061e+07
   19.53             45197.8             87.8497        -1.17176e+06         3.87005e+07
   19.55             45215.8             87.8891        -1.17182e+06         3.86948e+07
   19.57             45233.6              87.928        -1.17186e+06         3.86889e+07
   19.59               45251             87.9663         -1.1719e+06         3.86829e+07
   19.61             45268.1              88.004        -1.17194e+06         3.86769e+07
   19.63             45284.9             88.0413        -1.17197e+06         3.86707e+07
   19.65             45301.4              88.078        -1.17199e+06         3.86644e+07
   19.67             45317.5             88.1141        -1.17201e+06          3.8658e+07
   19.69             45333.3             88.1498        -1.17202e+06         3.86515e+07
   19.71             45348.8             88.1849        -1.17203e+06         3.86449e+07
   19.73             45363.9             88.2194        -1.17203e+06         3.86381e+07
   19.75             45378.7             88.2535        -1.17203e+06         3.86313e+07
   19.77             45393.2              88.287        -1.17202e+06         3.86243e+07
   19.79             45407.3               88.32          -1.172e+06         3.86172e+07
   19.81             45421.1             88.3525        -1.17198e+06           3.861e+07
   19.83             45434.6             88.3844        -1.17195e+06         3.86026e+07
   19.85             45447.7             88.4159        -1.17192e+06         3.85952e+07
   19.87             45460.4             88.4468        -1.17188e+06         3.85876e+07
   19.89             45472.9             88.4772        -1.17184e+06         3.85799e+07
   19.91             45484.9             88.5071        -1.17178e+06         3.85721e+07
   19.93             45496.6             88.5365        -1.17173e+06         3.85641e+07
   19.95               45508             88.5655        -1.17166e+06         3.85561e+07
   19.97               45519             88.5939        -1.17159e+06         3.85478e+07
   19.99             45529.6             88.6218        -1.17152e+06         3.85395e+07
